timestamp(unix),attitude_roll(radians),attitude_pitch(radians),attitude_yaw(radians),rotation_rate_x(radians/s),rotation_rate_y(radians/s),rotation_rate_z(radians/s),gravity_x(G),gravity_y(G),gravity_z(G),user_acc_x(G),user_acc_y(G),user_acc_z(G),magnetic_field_x(microteslas),magnetic_field_y(microteslas),magnetic_field_z(microteslas),latitude(degree),longitude(degree),altitude(meter),speed(m/s),course(degree),timestamp(unix),User Mark
1500293020.792986,0.104451,0.358641,-0.996721,-0.588044,1.353227,-0.539133,0.097628,-0.351002,-0.931271,-0.050371,-0.041073,-0.086353,11.157084,-31.150837,-39.107285,,,,,,,
,,,,,,,,,,,,,,,,46.907998,-94.376837,436.432983,0.000000,34.804688,1500293020.787464,
,,,,,,,,,,,,,,,,46.907998,-94.376837,436.432983,0.000000,34.804688,1500293019.999922,
1500293020.814140,0.130784,0.349221,-1.009940,-0.314101,0.758786,-0.666678,0.122540,-0.342166,-0.931615,-0.002209,-0.066800,0.039434,12.612198,-30.489624,-39.186092,,,,,,,
1500293020.824717,0.137213,0.344984,-1.016720,-0.324499,0.255017,-0.640602,0.128724,-0.338182,-0.932236,0.123275,-0.095961,0.079437,13.253954,-30.257879,-39.153904,,,,,,,
1500293020.803564,0.119269,0.353526,-1.002988,-0.398010,1.130479,-0.632020,0.111628,-0.346208,-0.931493,0.008703,-0.062758,0.039312,12.612198,-30.489624,-39.186092,,,,,,,
1500293020.845871,0.128347,0.335577,-1.028695,-0.359095,-1.159860,-0.543618,0.120855,-0.329314,-0.936454,0.131144,-0.104829,0.083656,13.972496,-29.800255,-39.254921,,,,,,,
1500293020.856448,0.112618,0.332425,-1.033931,-0.187631,-1.793346,-0.486448,0.106227,-0.326336,-0.939266,0.277806,-0.111591,-0.111363,13.905696,-29.554733,-39.463703,,,,,,,
1500293020.867026,0.091964,0.332192,-1.038673,0.098848,-2.167570,-0.406301,0.086814,-0.326116,-0.941335,0.184808,-0.078196,-0.183482,12.848676,-29.225563,-40.062607,,,,,,,
1500293020.877602,0.069855,0.335129,-1.043055,0.375007,-2.226367,-0.352986,0.065915,-0.328891,-0.942065,0.205707,-0.075421,-0.182752,12.848676,-29.225563,-40.062607,,,,,,,
1500293020.835295,0.136821,0.340253,-1.023039,-0.376825,-0.415389,-0.609052,0.128575,-0.333725,-0.933861,0.123424,-0.100418,0.081062,13.972496,-29.800255,-39.254921,,,,,,,
1500293020.888179,0.048305,0.340304,-1.046583,0.537033,-2.103065,-0.259646,0.045517,-0.333773,-0.941554,-0.052078,-0.117200,-0.111837,12.037060,-29.246071,-40.299023,,,,,,,
1500293020.898757,0.029976,0.346498,-1.048828,0.610311,-1.702077,-0.150386,0.028191,-0.339606,-0.940145,-0.006889,0.013694,-0.039942,10.410559,-29.598875,-40.493969,,,,,,,
1500293020.909333,0.014165,0.352860,-1.049981,0.590114,-1.505936,-0.074913,0.013291,-0.345583,-0.938294,0.008010,0.019671,-0.041793,10.410559,-29.598875,-40.493969,,,,,,,
1500293020.919910,-0.001786,0.358317,-1.051024,0.486539,-1.562275,-0.105631,-0.001673,-0.350699,-0.936487,0.022974,0.024786,-0.043600,9.752255,-29.848160,-40.474876,,,,,,,
1500293020.930488,-0.017457,0.362552,-1.052470,0.369305,-1.484568,-0.135782,-0.016321,-0.354661,-0.934852,0.028620,0.184083,-0.005562,8.493820,-30.268915,-40.446041,,,,,,,
1500293020.941064,-0.028751,0.365879,-1.052906,0.309630,-0.906243,0.008608,-0.026845,-0.357770,-0.933424,0.039143,0.187192,-0.006991,8.493820,-30.268915,-40.446041,,,,,,,
1500293020.951641,-0.032507,0.369768,-1.049609,0.387743,-0.014899,0.363392,-0.030304,-0.361399,-0.931919,0.184983,-0.004583,0.181659,7.944852,-30.405621,-40.455063,,,,,,,
1500293020.962219,-0.029060,0.373090,-1.044158,0.288593,0.647031,0.482471,-0.027057,-0.364495,-0.930812,0.107166,0.063637,0.171413,7.561903,-30.752647,-40.265705,,,,,,,
1500293020.972795,-0.023285,0.374189,-1.038553,0.058901,0.725690,0.494044,-0.021672,-0.365518,-0.930552,0.101781,0.064660,0.171153,7.561903,-30.752647,-40.265705,,,,,,,
1500293020.983372,-0.019442,0.373240,-1.032660,-0.116805,0.499747,0.531224,-0.018103,-0.364635,-0.930975,0.177694,0.004817,0.072073,7.701566,-30.890205,-40.133724,,,,,,,
1500293020.993950,-0.019789,0.371382,-1.025867,-0.166634,0.088299,0.632364,-0.018439,-0.362904,-0.931644,0.226248,-0.046535,0.007877,7.817842,-30.921986,-40.086739,,,,,,,
1500293021.004526,-0.025775,0.369916,-1.017528,-0.100549,-0.404579,0.774653,-0.024029,-0.361537,-0.932048,0.231838,-0.047902,0.008281,7.817842,-30.921986,-40.086739,,,,,,,
1500293021.015103,-0.037394,0.369243,-1.007354,-0.019333,-0.860309,0.945224,-0.034866,-0.360909,-0.931949,0.242675,-0.048530,0.008182,7.585419,-30.910585,-40.140148,,,,,,,
1500293021.036257,-0.069430,0.368182,-0.984692,-0.019232,-1.142904,0.948952,-0.064725,-0.359920,-0.930735,0.189771,-0.025029,0.018794,6.373748,-31.009300,-40.274471,,,,,,,
1500293021.025681,-0.053116,0.368883,-0.995813,0.012799,-1.148543,1.030881,-0.049519,-0.360574,-0.931415,0.174565,-0.024375,0.019474,6.373748,-31.009300,-40.274471,,,,,,,
1500293021.046834,-0.082973,0.366939,-0.975419,-0.064644,-0.894891,0.776264,-0.077361,-0.358760,-0.930218,0.105239,0.013545,0.128323,5.540172,-31.078056,-40.344711,,,,,,,
1500293021.057412,-0.093348,0.365952,-0.967894,-0.015219,-0.673994,0.649866,-0.087040,-0.357838,-0.929718,0.090275,-0.019558,0.037171,4.176154,-31.123386,-40.473812,,,,,,,
1500293021.067988,-0.099158,0.366033,-0.960516,0.105564,-0.186343,0.654202,-0.092438,-0.357914,-0.929168,0.095673,-0.019482,0.036620,4.176154,-31.123386,-40.473812,,,,,,,
1500293021.078565,-0.103940,0.367837,-0.952269,0.281585,-0.155885,0.731237,-0.096813,-0.359598,-0.928072,-0.013432,0.005517,0.097093,3.730849,-31.154593,-40.493294,,,,,,,
1500293021.089143,-0.106422,0.370265,-0.942088,0.325462,0.224980,0.929771,-0.099023,-0.361862,-0.926957,-0.011222,0.007782,0.095979,3.141855,-31.401678,-40.352173,,,,,,,
1500293021.099719,-0.106249,0.371869,-0.927899,0.261770,0.556870,1.342350,-0.098801,-0.363357,-0.926396,-0.011444,0.009277,0.095418,3.141855,-31.401678,-40.352173,,,,,,,
1500293021.110296,-0.109791,0.372106,-0.908292,0.195904,0.197398,1.825498,-0.102072,-0.363578,-0.925955,0.142721,-0.029977,0.200049,2.945493,-31.568850,-40.236382,,,,,,,
1500293021.120874,-0.121122,0.371310,-0.885687,0.130018,-0.444324,2.018701,-0.112592,-0.362836,-0.925026,-0.086718,0.027860,-0.122582,2.048635,-31.841877,-40.076584,,,,,,,
1500293021.131450,-0.137648,0.368274,-0.862833,-0.088758,-0.889849,2.041560,-0.128014,-0.360006,-0.924126,-0.071296,0.025030,-0.123482,2.048635,-31.841877,-40.076584,,,,,,,
1500293021.142027,-0.163613,0.362666,-0.842867,-0.307254,-2.241981,1.653203,-0.152289,-0.354768,-0.922468,-0.368387,0.114030,-0.145494,1.129614,-31.911812,-40.057396,,,,,,,
1500293021.152605,-0.202481,0.355976,-0.839694,-0.691947,-3.804289,-0.119793,-0.188493,-0.348505,-0.918158,-0.459304,0.197184,0.203742,-1.592818,-31.694046,-40.214241,,,,,,,
1500293021.163181,-0.239267,0.348461,-0.855439,-1.031617,-3.963853,-1.471010,-0.222747,-0.341452,-0.913123,-0.425049,0.190130,0.198707,-1.592818,-31.694046,-40.214241,,,,,,,
1500293021.173759,-0.270288,0.345298,-0.875188,-0.578803,-3.365432,-1.603605,-0.251249,-0.338477,-0.906812,0.049803,0.061255,0.081509,-3.123106,-31.347122,-40.396023,,,,,,,
1500293021.194912,-0.309309,0.354781,-0.885408,0.743939,-1.332717,0.232779,-0.285443,-0.347385,-0.893222,0.083996,0.070164,0.067920,-5.114711,-30.902914,-40.534973,,,,,,,
1500293021.184336,-0.292892,0.348371,-0.887101,0.173640,-2.206771,-0.870301,-0.271379,-0.341367,-0.899901,0.069932,0.064146,0.074599,-5.114711,-30.902914,-40.534973,,,,,,,
1500293021.205490,-0.327616,0.361111,-0.874022,0.898604,-1.424832,0.891787,-0.301033,-0.353314,-0.885747,0.632302,-0.139362,-0.058894,-5.749115,-31.081305,-40.312958,,,,,,,
1500293021.216067,-0.350375,0.366134,-0.862270,0.745624,-1.862686,0.732286,-0.320499,-0.358009,-0.876989,0.149646,-0.098519,0.173361,-7.397531,-31.694729,-39.559517,,,,,,,
1500293021.226643,-0.373838,0.370619,-0.857748,0.463890,-2.115513,0.046289,-0.340395,-0.362193,-0.867725,0.169543,-0.094335,0.164097,-7.397531,-31.694729,-39.559517,,,,,,,
1500293021.237221,-0.396130,0.374419,-0.860362,0.175713,-2.216824,-0.443292,-0.359119,-0.365732,-0.858646,0.017322,-0.129004,0.373631,-8.394798,-31.930048,-39.169296,,,,,,,
1500293021.247798,-0.418005,0.376818,-0.866713,-0.075726,-2.317260,-0.645351,-0.377457,-0.367964,-0.849781,-0.013244,-0.005922,0.402424,-9.991108,-32.198254,-38.570518,,,,,,,
1500293021.258374,-0.440949,0.377441,-0.875623,-0.332187,-2.557342,-0.763549,-0.396756,-0.368542,-0.840691,0.006055,-0.005344,0.393334,-9.991108,-32.198254,-38.570518,,,,,,,
1500293021.268952,-0.466912,0.376858,-0.886227,-0.489576,-2.910414,-0.821132,-0.418543,-0.368001,-0.830299,0.027842,-0.005885,0.382942,-10.720257,-32.213757,-38.361240,,,,,,,
1500293021.279529,-0.494971,0.375424,-0.894517,-0.420849,-2.906782,-0.445528,-0.441923,-0.366667,-0.818694,0.319120,-0.017610,0.319945,-12.447870,-32.052467,-37.972679,,,,,,,
1500293021.290105,-0.523052,0.371931,-0.893251,-0.165268,-2.486245,0.515284,-0.465373,-0.363415,-0.807067,0.342570,-0.020862,0.308319,-12.447870,-32.052467,-37.972679,,,,,,,
,,,,,,,,,,,,,,,,46.907998,-94.376837,436.590942,0.000000,34.804688,1500293020.999921,
1500293021.300683,-0.547097,0.365961,-0.883192,-0.015539,-1.735319,1.154525,-0.485762,-0.357847,-0.797484,0.701582,-0.216937,0.401351,-13.502069,-31.938200,-37.707825,,,,,,,
1500293021.311260,-0.565698,0.358490,-0.873257,-0.174782,-1.382971,1.072933,-0.501930,-0.350860,-0.790546,0.063209,0.200683,0.436252,-15.684812,-31.577518,-37.162910,,,,,,,
1500293021.321836,-0.586350,0.352856,-0.865447,0.010302,-1.891494,0.808786,-0.519234,-0.345579,-0.781647,0.080513,0.195402,0.427353,-15.684812,-31.577518,-37.162910,,,,,,,
1500293021.332414,-0.619461,0.352013,-0.855862,0.552257,-3.132866,0.743151,-0.544994,-0.344788,-0.764266,0.200756,0.158326,0.259139,-16.583447,-31.342743,-36.971020,,,,,,,
1500293021.353567,-0.711050,0.357278,-0.831950,0.901090,-4.185087,0.619759,-0.611418,-0.349726,-0.709831,0.296827,0.296488,0.542839,-19.228130,-31.362961,-35.649380,,,,,,,
1500293021.342991,-0.663268,0.354264,-0.843904,0.854047,-3.892385,0.702999,-0.577462,-0.346900,-0.739052,0.262872,0.293662,0.572060,-19.228130,-31.362961,-35.649380,,,,,,,
1500293021.364145,-0.760486,0.360483,-0.818602,1.071972,-4.224794,0.711194,-0.644972,-0.352726,-0.677935,0.330381,0.299488,0.510943,-20.930481,-31.541069,-34.515369,,,,,,,
1500293021.374722,-0.809901,0.362872,-0.801504,1.273267,-4.061004,0.988207,-0.677059,-0.354961,-0.644666,0.388271,0.317562,0.582227,-24.347523,-31.927307,-31.813198,,,,,,,
1500293021.385298,-0.859841,0.362865,-0.781728,1.288218,-4.060815,1.223133,-0.708398,-0.354954,-0.610066,0.419610,0.317555,0.547627,-24.347523,-31.927307,-31.813198,,,,,,,
1500293021.395876,-0.909426,0.359748,-0.762673,1.038437,-4.046933,1.320114,-0.738634,-0.352039,-0.574881,0.218813,0.513492,0.791129,-26.038349,-32.068638,-30.295895,,,,,,,
1500293021.417029,-1.005106,0.342270,-0.730184,0.558526,-3.984339,1.659813,-0.795250,-0.335627,-0.504908,0.324120,0.512308,0.749171,-29.379713,-31.977280,-27.175734,,,,,,,
1500293021.406453,-0.957744,0.352824,-0.745823,0.744785,-3.994682,1.451560,-0.767514,-0.345550,-0.539924,0.296383,0.522231,0.784187,-29.379713,-31.977280,-27.175734,,,,,,,
1500293021.427607,-1.053379,0.327966,-0.714651,0.481553,-4.121025,1.951779,-0.822776,-0.322118,-0.468273,0.346549,0.665090,0.657741,-30.996582,-31.692879,-25.671148,,,,,,,
1500293021.438184,-1.103399,0.309226,-0.698312,0.448995,-4.283098,2.369631,-0.850401,-0.304321,-0.429194,0.374174,0.647293,0.618662,-34.326687,-30.642811,-22.515137,,,,,,,
1500293021.448761,-1.154702,0.285544,-0.681079,0.456744,-4.400485,2.781507,-0.877638,-0.281679,-0.387825,0.401411,0.624651,0.577293,-34.326687,-30.642811,-22.515137,,,,,,,
1500293021.459338,-1.206085,0.258242,-0.663711,0.488899,-4.410334,3.054307,-0.903248,-0.255381,-0.344852,0.244649,0.751368,0.546100,-36.108891,-29.819553,-20.764809,,,,,,,
1500293021.469915,-1.256398,0.227794,-0.646915,0.494780,-4.361685,3.273534,-0.926416,-0.225829,-0.301256,0.049692,0.854552,0.538713,-39.683384,-27.612862,-16.940884,,,,,,,
1500293021.480491,-1.304975,0.193660,-0.630814,0.513223,-4.239683,3.652126,-0.946840,-0.192451,-0.257791,0.070116,0.821175,0.495248,-39.683384,-27.612862,-16.940884,,,,,,,
1500293021.491069,-1.352188,0.155421,-0.614946,0.584994,-4.164722,3.889748,-0.964434,-0.154796,-0.214257,-0.119169,0.840983,0.422570,-41.363354,-26.269073,-14.941330,,,,,,,
1500293021.501646,-1.397176,0.115674,-0.599852,0.678350,-4.066869,4.001409,-0.978383,-0.115417,-0.171595,-0.211054,0.825866,0.374842,-44.497742,-22.944286,-10.851054,,,,,,,
1500293021.512222,-1.442361,0.074689,-0.586155,0.686141,-4.158749,4.012034,-0.988999,-0.074619,-0.127726,-0.200439,0.785069,0.330973,-44.497742,-22.944286,-10.851054,,,,,,,
1500293021.522800,-1.486340,0.033081,-0.574905,0.627019,-4.068532,4.056519,-0.995890,-0.033074,-0.084310,-0.330297,0.861230,0.319494,-45.859184,-21.094000,-8.730006,,,,,,,
1500293021.543953,-1.561537,-0.060956,-0.557585,0.609281,-3.150129,4.756580,-0.998100,0.060919,-0.009242,-0.328087,0.767237,0.244425,-48.072559,-17.139215,-4.417094,,,,,,,
1500293021.533378,-1.526941,-0.011825,-0.565406,0.630337,-3.722669,4.387103,-0.998969,0.011825,-0.043838,-0.327218,0.816331,0.279022,-48.072559,-17.139215,-4.417094,,,,,,,
1500293021.554531,-1.590087,-0.113724,-0.552388,0.473404,-2.617826,5.053815,-0.993356,0.113479,0.019164,-0.399589,0.754303,0.251404,-48.961361,-14.863043,-2.471724,,,,,,,
1500293021.565109,-1.614105,-0.168776,-0.551216,0.207601,-2.179745,5.243112,-0.984867,0.167976,0.042680,-0.606182,0.794061,0.172500,-50.307568,-9.647589,0.554329,,,,,,,
1500293021.575685,-1.634049,-0.225382,-0.554064,-0.040034,-1.717215,5.398230,-0.972760,0.223478,0.061611,-0.618289,0.738558,0.153568,-50.307568,-9.647589,0.554329,,,,,,,
1500293021.586262,-1.650026,-0.283379,-0.560450,-0.239227,-1.246221,5.545990,-0.957104,0.279602,0.075990,-0.785923,0.672471,-0.001451,-50.743404,-6.822934,1.670084,,,,,,,
1500293021.596839,-1.662969,-0.342268,-0.569593,-0.370819,-0.861661,5.630919,-0.937997,0.335624,0.086704,-0.958945,0.651528,-0.210682,-51.123333,-0.893979,3.136895,,,,,,,
1500293021.607415,-1.672944,-0.400969,-0.580643,-0.442217,-0.462913,5.611836,-0.915884,0.390310,0.093882,-0.981058,0.596842,-0.217860,-51.123333,-0.893979,3.136895,,,,,,,
1500293021.617993,-1.679371,-0.458713,-0.592816,-0.467683,-0.019958,5.508456,-0.891343,0.442795,0.097160,-1.005599,0.544357,-0.221137,-51.059422,2.134093,3.551855,,,,,,,
1500293021.628571,-1.682159,-0.514993,-0.605302,-0.449236,0.388273,5.368178,-0.864905,0.492529,0.096718,-1.102319,0.370646,-0.353111,-50.452991,8.044271,3.744357,,,,,,,
1500293021.639147,-1.681319,-0.569275,-0.617834,-0.444131,0.789942,5.156916,-0.837153,0.539021,0.092903,-1.130071,0.324153,-0.349297,-50.452991,8.044271,3.744357,,,,,,,
1500293021.649724,-1.677332,-0.621344,-0.630590,-0.464131,1.129956,4.956438,-0.808487,0.582129,0.086460,-1.122482,0.191309,-0.411564,-49.940228,10.851671,3.528357,,,,,,,
1500293021.660301,-1.671697,-0.671280,-0.643604,-0.486954,1.309472,4.745511,-0.779043,0.621989,0.078874,-1.060053,0.094869,-0.477448,-48.582893,16.039310,2.584128,,,,,,,
1500293021.670877,-1.665686,-0.719292,-0.656192,-0.456503,1.329238,4.565685,-0.748888,0.658852,0.071276,-1.090208,0.058006,-0.469851,-48.582893,16.039310,2.584128,,,,,,,
1500293021.681455,-1.659727,-0.765620,-0.667928,-0.393251,1.312683,4.391794,-0.718104,0.692984,0.064030,-0.934972,-0.038962,-0.416035,-47.758759,18.421183,1.998826,,,,,,,
1500293021.692033,-1.654373,-0.810585,-0.678729,-0.334635,1.184482,4.277406,-0.686670,0.724690,0.057523,-0.797873,-0.122136,-0.323347,-45.861412,22.807615,0.882086,,,,,,,
1500293021.702609,-1.651591,-0.854887,-0.689094,-0.314804,0.914606,4.210196,-0.654163,0.754497,0.052968,-0.830380,-0.151942,-0.318792,-45.861412,22.807615,0.882086,,,,,,,
1500293021.713186,-1.653072,-0.898059,-0.700162,-0.340662,0.572772,4.096236,-0.621021,0.782119,0.051211,-0.863522,-0.179565,-0.317034,-44.794800,24.849142,0.425090,,,,,,,
1500293021.723763,-1.659304,-0.939494,-0.712230,-0.364390,0.242539,3.904010,-0.587887,0.807259,0.052169,-0.873966,-0.144326,-0.306213,-42.465244,28.652004,0.003236,,,,,,,
1500293021.734339,-1.669167,-0.977282,-0.725590,-0.397026,0.067541,3.512978,-0.556574,0.828980,0.054928,-0.905279,-0.166047,-0.308971,-42.465244,28.652004,0.003236,,,,,,,
1500293021.744917,-1.679952,-1.009688,-0.738536,-0.324946,-0.007110,2.966850,-0.528957,0.846666,0.057969,-1.051060,-0.107637,-0.333055,-41.273193,30.343979,0.036036,,,,,,,
1500293021.766071,-1.691664,-1.057612,-0.752487,0.089556,-0.012874,1.985038,-0.487372,0.871185,0.059196,-1.037377,-0.221192,-0.367240,-39.195618,32.983044,0.239002,,,,,,,
1500293021.755495,-1.687808,-1.035889,-0.747997,-0.130465,0.032067,2.370897,-0.506276,0.860316,0.059512,-1.018474,-0.210322,-0.367557,-39.195618,32.983044,0.239002,,,,,,,
1500293021.776648,-1.691293,-1.077338,-0.751452,0.329390,-0.065825,1.814605,-0.470240,0.880700,0.056938,-0.891882,-0.346337,-0.339607,-38.397064,33.909210,0.255870,,,,,,,
1500293021.787226,-1.686866,-1.096225,-0.745319,0.520153,-0.102578,1.717590,-0.453883,0.889489,0.052920,-0.908239,-0.355126,-0.335589,-37.032974,35.394688,0.098711,,,,,,,
1500293021.797802,-1.679921,-1.114540,-0.736302,0.579600,-0.098624,1.674718,-0.437970,0.897708,0.047984,-0.924152,-0.363345,-0.330653,-37.032974,35.394688,0.098711,,,,,,,
1500293021.808379,-1.672593,-1.133062,-0.727498,0.523964,-0.042163,1.712941,-0.421694,0.905714,0.043076,-0.896818,-0.340208,-0.119019,-36.390938,36.054539,-0.065662,,,,,,,
1500293021.818957,-1.666366,-1.151952,-0.720698,0.418678,0.017854,1.764690,-0.404849,0.913560,0.038809,-0.907636,-0.345582,0.001611,-35.067608,37.340427,-0.435902,,,,,,,
1500293021.829533,-1.661143,-1.171337,-0.715395,0.354497,0.028339,1.813744,-0.387334,0.921271,0.035090,-0.925150,-0.353293,0.005331,-35.067608,37.340427,-0.435902,,,,,,,
1500293021.840110,-1.656238,-1.190869,-0.710237,0.343643,0.007687,1.828354,-0.369500,0.928692,0.031648,-0.976386,-0.498058,-0.013582,-34.357590,37.992409,-0.606021,,,,,,,
1500293021.850688,-1.651630,-1.210676,-0.705002,0.335916,-0.039786,1.869770,-0.351236,0.935854,0.028454,-0.970587,-0.705157,-0.041866,-32.866993,39.283504,-0.895408,,,,,,,
1500293021.861264,-1.646684,-1.231024,-0.698627,0.363524,-0.122238,1.902440,-0.332313,0.942831,0.025267,-0.989510,-0.712133,-0.038679,-32.866993,39.283504,-0.895408,,,,,,,
1500293021.871841,-1.640313,-1.250512,-0.689887,0.410668,-0.198400,1.777266,-0.314076,0.949146,0.021869,-1.080974,-0.809040,-0.073810,-32.077740,39.927616,-1.019286,,,,,,,
1500293021.882419,-1.630458,-1.267528,-0.676908,0.509136,-0.247875,1.504088,-0.298109,0.954366,0.017807,-1.096941,-0.814259,-0.069748,-30.539650,41.109657,-1.249192,,,,,,,
1500293021.892995,-1.614410,-1.280382,-0.657473,0.627467,-0.224581,1.065997,-0.286077,0.958125,0.012485,-1.108973,-0.818019,-0.064426,-30.539650,41.109657,-1.249192,,,,,,,
1500293021.903572,-1.590757,-1.287500,-0.631002,0.763918,-0.147029,0.505748,-0.279466,0.960139,0.005579,-1.222288,-0.867320,-0.014597,-29.929052,41.551323,-1.404979,,,,,,,
1500293021.914150,-1.559894,-1.288258,-0.597276,0.941554,-0.147840,-0.073222,-0.278778,0.960351,-0.003039,-1.202072,-0.849480,-0.001004,-29.366667,41.929211,-1.942972,,,,,,,
1500293021.924726,-1.523868,-1.282993,-0.557582,1.112320,-0.218055,-0.590065,-0.283535,0.958870,-0.013315,-1.197316,-0.847999,0.009272,-29.366667,41.929211,-1.942972,,,,,,,
1500293021.935303,-1.485435,-1.272501,-0.514136,1.292408,-0.321827,-1.006717,-0.292821,0.955839,-0.025056,-1.029811,-0.732969,0.063615,-29.462669,41.842094,-2.329211,,,,,,,
1500293021.945881,-1.447343,-1.258120,-0.469109,1.456325,-0.513897,-1.276879,-0.305265,0.951514,-0.037879,-0.834978,-0.615607,0.115164,-30.265320,41.204361,-3.231970,,,,,,,
1500293021.956457,-1.412418,-1.241169,-0.424294,1.577347,-0.790313,-1.432323,-0.319639,0.946163,-0.051051,-0.820605,-0.610256,0.128337,-30.265320,41.204361,-3.231970,,,,,,,
1500293021.967034,-1.382741,-1.222772,-0.381290,1.645189,-1.112272,-1.488785,-0.335028,0.940048,-0.063757,-0.805215,-0.604141,0.141043,-30.858818,40.722923,-3.689373,,,,,,,
1500293021.977612,-1.359844,-1.204190,-0.341381,1.632878,-1.461574,-1.452280,-0.350503,0.933549,-0.075056,-0.684119,-0.479173,0.202360,-32.193016,39.606453,-4.378765,,,,,,,
1500293021.988188,-1.345681,-1.185840,-0.306396,1.532211,-1.825179,-1.424310,-0.366044,0.926815,-0.083823,-0.668578,-0.472438,0.211127,-32.193016,39.606453,-4.378765,,,,,,,
1500293021.998765,-1.340296,-1.167469,-0.276906,1.399591,-2.142148,-1.471980,-0.382101,0.919760,-0.089668,-0.703944,-0.381369,0.225242,-32.867218,39.033470,-4.513187,,,,,,,
1500293022.009343,-1.343270,-1.147816,-0.253114,1.275928,-2.405838,-1.665054,-0.399901,0.911870,-0.092591,-0.915529,-0.259968,0.099290,-34.252342,37.858040,-4.216724,,,,,,,
1500293022.019919,-1.351988,-1.125593,-0.233121,1.237325,-2.577023,-1.947160,-0.420373,0.902523,-0.093478,-0.895056,-0.250622,0.100176,-34.252342,37.858040,-4.216724,,,,,,,
1500293022.030496,-1.363227,-1.100053,-0.214332,1.298486,-2.677891,-2.271905,-0.443813,0.891232,-0.093468,-1.018086,-0.185238,-0.070884,-35.043907,37.169712,-3.817282,,,,,,,
1500293022.051650,-1.388222,-1.038783,-0.177661,1.394650,-2.682583,-2.941357,-0.498839,0.861787,-0.092101,-0.993517,-0.087816,-0.111360,-36.909630,35.413712,-2.789768,,,,,,,
1500293022.041074,-1.375201,-1.071216,-0.195490,1.376322,-2.714830,-2.591508,-0.469923,0.877784,-0.093105,-1.022432,-0.103812,-0.110356,-36.909630,35.413712,-2.789768,,,,,,,
1500293022.062227,-1.401840,-1.003359,-0.161692,1.341966,-2.533701,-3.229470,-0.529820,0.843281,-0.090378,-0.962536,-0.069310,-0.113083,-37.970242,34.315342,-2.225426,,,,,,,
1500293022.072805,-1.415927,-0.965343,-0.148350,1.233828,-2.333027,-3.496509,-0.562323,0.822244,-0.087790,-0.886499,0.000861,-0.101496,-40.264267,31.653111,-1.050726,,,,,,,
1500293022.083381,-1.430180,-0.925430,-0.138010,1.081501,-2.071362,-3.694728,-0.595554,0.798880,-0.084301,-0.853268,0.024225,-0.104984,-40.264267,31.653111,-1.050726,,,,,,,
1500293022.093958,-1.444067,-0.884268,-0.130602,0.899049,-1.790928,-3.830433,-0.628772,0.773452,-0.080113,-0.748272,0.099305,-0.106090,-41.441891,30.109669,-0.460629,,,,,,,
1500293022.104536,-1.457434,-0.842317,-0.125982,0.712508,-1.533811,-3.925849,-0.661463,0.746187,-0.075308,-0.686224,0.192655,-0.145686,-43.719196,26.691704,0.647636,,,,,,,
1500293022.115112,-1.470082,-0.799675,-0.123240,0.575039,-1.345728,-4.005693,-0.693408,0.717129,-0.070073,-0.654278,0.221713,-0.150920,-43.719196,26.691704,0.647636,,,,,,,
1500293022.125689,-1.482122,-0.756790,-0.121468,0.483896,-1.235417,-4.039407,-0.724187,0.686591,-0.064386,-0.602244,0.295846,-0.276725,-44.781860,24.849209,1.155993,,,,,,,
1500293022.136267,-1.493500,-0.713371,-0.119555,0.477550,-1.187869,-4.086926,-0.753902,0.654387,-0.058390,-0.572529,0.328050,-0.282720,-46.693039,20.963085,2.131561,,,,,,,
1500293022.146843,-1.503952,-0.669783,-0.116843,0.501447,-1.141887,-4.100221,-0.782206,0.620816,-0.052364,-0.544225,0.361621,-0.288746,-46.693039,20.963085,2.131561,,,,,,,
1500293022.157420,-1.513378,-0.626102,-0.112911,0.571165,-1.109323,-4.105053,-0.808982,0.585991,-0.046501,-0.497796,0.427391,-0.402473,-47.526638,18.937107,2.615191,,,,,,,
1500293022.167998,-1.521941,-0.582416,-0.107504,0.658347,-1.097422,-4.097751,-0.834140,0.550043,-0.040785,-0.440351,0.502081,-0.462725,-48.917976,14.785060,3.559300,,,,,,,
1500293022.178574,-1.530141,-0.538774,-0.100825,0.741959,-1.110827,-4.095444,-0.857629,0.513084,-0.034887,-0.416861,0.539040,-0.468623,-48.917976,14.785060,3.559300,,,,,,,
1500293022.189151,-1.537805,-0.495380,-0.092730,0.839484,-1.101561,-4.066139,-0.879310,0.475366,-0.029021,-0.330224,0.587577,-0.509676,-49.469105,12.678994,4.035561,,,,,,,
1500293022.199729,-1.545209,-0.452566,-0.083142,0.948357,-1.115538,-4.006349,-0.899033,0.437275,-0.023009,-0.222335,0.594021,-0.492494,-50.273659,8.459833,5.022459,,,,,,,
1500293022.210305,-1.552886,-0.410495,-0.072689,0.994574,-1.148850,-3.936786,-0.916776,0.399063,-0.016422,-0.204592,0.632233,-0.499081,-50.273659,8.459833,5.022459,,,,,,,
1500293022.220883,-1.561136,-0.369164,-0.061927,0.992692,-1.166270,-3.881792,-0.932586,0.360836,-0.009009,-0.123582,0.635273,-0.439340,-50.524372,6.385211,5.545420,,,,,,,
1500293022.231460,-1.569647,-0.328795,-0.051453,0.935116,-1.135704,-3.786162,-0.946432,0.322903,-0.001088,-0.109736,0.673206,-0.447261,-50.733749,2.343572,6.695427,,,,,,,
1500293022.242036,-1.578193,-0.289683,-0.041449,0.872679,-1.082373,-3.670856,-0.958308,0.285649,0.007089,-0.097859,0.710460,-0.455438,-50.733749,2.343572,6.695427,,,,,,,
1500293022.252614,-1.586605,-0.252200,-0.032169,0.782728,-1.014889,-3.516305,-0.968245,0.249535,0.015308,-0.006227,0.686058,-0.410999,-50.705193,0.395210,7.284348,,,,,,,
1500293022.263191,-1.595192,-0.216175,-0.023655,0.688181,-0.993052,-3.386413,-0.976434,0.214495,0.023825,0.030451,0.690428,-0.371756,-50.424416,-3.279265,8.417802,,,,,,,
1500293022.273767,-1.604109,-0.181443,-0.016214,0.564402,-0.977010,-3.278539,-0.983039,0.180449,0.032760,0.037055,0.724473,-0.380691,-50.424416,-3.279265,8.417802,,,,,,,
1500293022.284344,-1.613084,-0.147768,-0.010008,0.421946,-0.934313,-3.177878,-0.988218,0.147231,0.041815,0.068830,0.733446,-0.350973,-50.186306,-5.004828,8.973364,,,,,,,
1500293022.294922,-1.621636,-0.115084,-0.005097,0.285652,-0.844451,-3.085594,-0.992102,0.114831,0.050482,0.110525,0.732490,-0.345175,-49.546570,-8.294539,10.028578,,,,,,,
1500293022.305498,-1.629371,-0.083296,-0.001371,0.150600,-0.741297,-2.994481,-0.994824,0.083200,0.058338,0.113247,0.764121,-0.353031,-49.546570,-8.294539,10.028578,,,,,,,
1500293022.316076,-1.636275,-0.052636,0.001311,0.047080,-0.648048,-2.881415,-0.996475,0.052612,0.065341,0.114898,0.794708,-0.360034,-49.163395,-9.867567,10.479810,,,,,,,
1500293022.326653,-1.642119,-0.023080,0.002994,-0.059855,-0.525804,-2.769449,-0.997192,0.023078,0.071243,0.161529,0.791711,-0.327576,-48.310852,-12.852128,11.185657,,,,,,,
1500293022.337229,-1.646602,0.005276,0.003644,-0.158564,-0.390344,-2.651319,-0.997114,-0.005276,0.075732,0.161451,0.820065,-0.332064,-48.310852,-12.852128,11.185657,,,,,,,
1500293022.347806,-1.649549,0.032238,0.003512,-0.223439,-0.237147,-2.497665,-0.996383,-0.032232,0.078630,0.224532,0.813085,-0.304598,-47.859596,-14.254721,11.423522,,,,,,,
1500293022.358384,-1.613870,-0.031178,0.002225,-0.281425,-0.057615,-2.324238,-0.998587,0.031173,0.043039,0.328253,0.687027,-0.230753,-46.958652,-16.848087,11.630201,,,,,,,
1500293022.368960,-1.613436,-0.007803,-0.000055,-0.322970,0.074889,-2.156010,-0.999061,0.007803,0.042626,0.328727,0.710398,-0.230339,-46.958652,-16.848087,11.630201,,,,,,,
1500293022.379537,-1.611562,0.012802,-0.003042,-0.387094,0.168745,-1.984245,-0.999087,-0.012802,0.040751,0.382419,0.705764,-0.149424,-48.336529,-13.761810,9.921042,,,,,,,
1500293022.390115,-1.609339,0.032662,-0.007289,-0.509071,0.208417,-1.821212,-0.998724,-0.032656,0.038512,0.382056,0.725619,-0.147185,-47.748154,-15.852636,9.645862,,,,,,,
1500293022.400691,-1.606686,0.050974,-0.013153,-0.658052,0.233757,-1.671670,-0.998058,-0.050952,0.035835,0.381389,0.743914,-0.144508,-47.748154,-15.852636,9.645862,,,,,,,
1500293022.411268,-1.603379,0.067460,-0.020828,-0.817956,0.286549,-1.486518,-0.997196,-0.067409,0.032503,0.420444,0.745174,-0.061006,-47.461674,-16.805948,9.443744,,,,,,,
1500293022.421846,-1.599027,0.081816,-0.030304,-0.968633,0.365653,-1.275571,-0.996258,-0.081724,0.028133,0.503277,0.709471,-0.024395,-46.943764,-18.484829,8.878559,,,,,,,
1500293022.432422,-1.593353,0.093756,-0.041160,-1.078194,0.473491,-1.043744,-0.995355,-0.093619,0.022456,0.502374,0.721365,-0.018718,-46.943764,-18.484829,8.878559,,,,,,,
,,,,,,,,,,,,,,,,46.908000,-94.376837,436.309937,0.210000,34.804688,1500293021.999921,
1500293022.442999,-1.586331,0.103084,-0.053049,-1.152528,0.587198,-0.798470,-0.994572,-0.102901,0.015451,0.582920,0.663006,-0.015024,-46.737099,-19.179977,8.485674,,,,,,,
1500293022.453577,-1.577652,0.109761,-0.065437,-1.172443,0.732303,-0.560464,-0.993959,-0.109540,0.006814,0.661638,0.593107,-0.014642,-46.473175,-20.218758,7.461926,,,,,,,
1500293022.464153,-1.567406,0.113655,-0.077713,-1.139563,0.875941,-0.301715,-0.993542,-0.113411,-0.003368,0.661221,0.596977,-0.004460,-46.473175,-20.218758,7.461926,,,,,,,
1500293022.474730,-1.555797,0.114579,-0.089063,-1.036181,1.006074,-0.028411,-0.993331,-0.114329,-0.014901,0.749023,0.500071,-0.003623,-46.424347,-20.550694,6.832526,,,,,,,
1500293022.495884,-1.531473,0.107177,-0.106617,-0.707924,1.037763,0.540379,-0.993493,-0.106972,-0.039088,0.749185,0.492714,0.020564,-46.508102,-20.781487,5.418570,,,,,,,
1500293022.485308,-1.543482,0.112411,-0.098785,-0.882468,1.073255,0.255594,-0.993318,-0.112174,-0.027138,0.749009,0.497916,0.008614,-46.508102,-20.781487,5.418570,,,,,,,
1500293022.506461,-1.520971,0.099197,-0.112433,-0.542775,0.893956,0.788017,-0.993849,-0.099034,-0.049560,0.761671,0.421986,0.055679,-46.637310,-20.665062,4.706491,,,,,,,
1500293022.517039,-1.512871,0.089073,-0.116721,-0.430288,0.666240,0.976627,-0.994365,-0.088955,-0.057664,0.685451,0.413143,0.121644,-47.028805,-20.000305,3.537508,,,,,,,
1500293022.527615,-1.507545,0.077304,-0.120204,-0.389388,0.407561,1.128474,-0.995020,-0.077227,-0.063021,0.686106,0.401415,0.127001,-47.028805,-20.000305,3.537508,,,,,,,
1500293022.538193,-1.505162,0.063925,-0.123445,-0.389796,0.138054,1.281542,-0.995809,-0.063881,-0.065453,0.604909,0.430687,0.183327,-47.262268,-19.508919,3.148770,,,,,,,
1500293022.548770,-1.505013,0.048818,-0.126794,-0.414814,-0.044624,1.449677,-0.996648,-0.048798,-0.065658,0.519598,0.494935,0.198256,-47.772732,-18.283360,2.778404,,,,,,,
1500293022.559346,-1.506311,0.031625,-0.130424,-0.460005,-0.162373,1.649915,-0.997423,-0.031620,-0.064408,0.520372,0.477756,0.197007,-47.772732,-18.283360,2.778404,,,,,,,
1500293022.569923,-1.508331,0.012230,-0.134481,-0.509735,-0.207738,1.857799,-0.997975,-0.012230,-0.062420,0.520924,0.458366,0.195019,-48.054546,-17.535772,2.737184,,,,,,,
1500293022.580501,-1.510628,-0.009498,-0.138825,-0.546520,-0.215813,2.079283,-0.998145,0.009498,-0.060129,0.435996,0.529702,0.178751,-48.679173,-15.714362,2.762470,,,,,,,
1500293022.591077,-1.512851,-0.033418,-0.143396,-0.571194,-0.197154,2.281287,-0.997764,0.033412,-0.057881,0.435615,0.505788,0.176503,-48.679173,-15.714362,2.762470,,,,,,,
1500293022.601655,-1.514885,-0.059369,-0.148202,-0.592185,-0.165136,2.474777,-0.996678,0.059334,-0.055784,0.365498,0.541374,0.139647,-49.015011,-14.629465,2.782420,,,,,,,
1500293022.612232,-1.516578,-0.087344,-0.152869,-0.583563,-0.108959,2.663441,-0.994724,0.087232,-0.053985,0.313694,0.539293,0.104416,-49.691360,-12.132154,2.795372,,,,,,,
1500293022.622808,-1.517777,-0.117099,-0.157284,-0.560538,-0.059814,2.827589,-0.991756,0.116831,-0.052631,0.310726,0.509695,0.103062,-49.691360,-12.132154,2.795372,,,,,,,
1500293022.633386,-1.518568,-0.148342,-0.161254,-0.512454,-0.016471,2.963543,-0.987669,0.147798,-0.051632,0.260389,0.474348,0.075405,-50.015503,-10.722801,2.775911,,,,,,,
1500293022.643963,-1.519013,-0.181091,-0.164598,-0.458660,0.019492,3.112921,-0.982329,0.180103,-0.050914,0.212447,0.428494,0.064601,-50.583305,-7.632841,2.702494,,,,,,,
1500293022.654539,-1.519194,-0.215052,-0.167337,-0.411533,0.037732,3.221853,-0.975665,0.213398,-0.050392,0.205783,0.395199,0.064079,-50.583305,-7.632841,2.702494,,,,,,,
1500293022.665117,-1.519427,-0.250046,-0.169804,-0.393782,0.025981,3.313560,-0.967623,0.247449,-0.049750,0.197741,0.361148,0.063437,-50.809711,-5.962094,2.657328,,,,,,,
1500293022.675694,-1.519782,-0.285924,-0.172373,-0.414754,0.034883,3.396826,-0.958153,0.282045,-0.048922,0.126732,0.334411,0.082980,-51.103886,-2.436109,2.587004,,,,,,,
1500293022.686270,-1.520180,-0.322453,-0.175302,-0.448268,0.051369,3.445874,-0.947246,0.316894,-0.047987,0.115825,0.299561,0.082045,-51.103886,-2.436109,2.587004,,,,,,,
1500293022.696848,-1.520900,-0.359788,-0.178776,-0.495910,0.048620,3.487516,-0.934807,0.352076,-0.046682,0.039009,0.287435,0.085790,-51.159725,-0.602559,2.560140,,,,,,,
1500293022.718001,-1.522877,-0.434992,-0.187623,-0.603812,0.087964,3.555089,-0.905832,0.421404,-0.043440,-0.059042,0.242125,0.071638,-51.068119,3.149005,2.523021,,,,,,,
1500293022.707425,-1.521788,-0.397221,-0.182821,-0.544698,0.062754,3.531676,-0.921032,0.386857,-0.045174,-0.043842,0.276671,0.073372,-51.068119,3.149005,2.523021,,,,,,,
1500293022.728579,-1.524278,-0.472965,-0.193282,-0.667501,0.104864,3.563790,-0.889258,0.455528,-0.041397,-0.148004,0.225624,0.047607,-50.916801,5.040986,2.510502,,,,,,,
1500293022.739156,-1.526331,-0.511002,-0.199944,-0.737045,0.104948,3.563861,-0.871393,0.489051,-0.038773,-0.165869,0.192101,0.044983,-50.399117,8.826633,2.500865,,,,,,,
1500293022.749732,-1.529010,-0.548955,-0.207565,-0.789993,0.111106,3.557822,-0.852326,0.521796,-0.035636,-0.184936,0.159357,0.041847,-50.399117,8.826633,2.500865,,,,,,,
1500293022.760310,-1.532623,-0.586660,-0.216267,-0.847427,0.098192,3.526013,-0.832187,0.553583,-0.031783,-0.283734,0.156088,0.008788,-50.034222,10.698414,2.520947,,,,,,,
1500293022.781463,-1.542044,-0.661234,-0.237090,-0.962147,0.160371,3.477441,-0.788909,0.614091,-0.022689,-0.388871,0.118514,-0.024888,-49.101826,14.363587,2.632921,,,,,,,
1500293022.770887,-1.536993,-0.624111,-0.226039,-0.900090,0.120231,3.500462,-0.811020,0.584376,-0.027426,-0.366761,0.148229,-0.020151,-49.101826,14.363587,2.632921,,,,,,,
1500293022.792041,-1.547695,-0.698147,-0.249419,-1.007777,0.215022,3.459473,-0.765830,0.642799,-0.017695,-0.458718,0.101570,-0.041021,-48.541809,16.141907,2.714092,,,,,,,
1500293022.802618,-1.553911,-0.734701,-0.263291,-1.071943,0.296300,3.428060,-0.741925,0.670366,-0.012529,-0.567172,0.070952,-0.075103,-47.244408,19.592327,2.888113,,,,,,,
1500293022.813194,-1.560559,-0.770584,-0.278576,-1.106176,0.380324,3.357469,-0.717466,0.696554,-0.007345,-0.591631,0.044763,-0.080286,-47.244408,19.592327,2.888113,,,,,,,
1500293022.823771,-1.567426,-0.805335,-0.295016,-1.117536,0.474336,3.248964,-0.692866,0.721062,-0.002335,-0.687047,-0.017464,-0.137710,-46.516911,21.251394,2.964791,,,,,,,
1500293022.834349,-1.574428,-0.838693,-0.312157,-1.099318,0.547936,3.124437,-0.668431,0.743770,0.002427,-0.711483,-0.040172,-0.142472,-44.965630,24.349636,3.069512,,,,,,,
1500293022.844925,-1.581189,-0.870508,-0.329577,-1.044365,0.620445,2.982738,-0.644403,0.764657,0.006697,-0.735510,-0.061059,-0.146742,-44.965630,24.349636,3.069512,,,,,,,
1500293022.855503,-1.587593,-0.900867,-0.346918,-0.980152,0.677154,2.850752,-0.620843,0.783866,0.010429,-0.802329,-0.111609,-0.181083,-44.166008,25.769098,3.090584,,,,,,,
1500293022.866080,-1.593566,-0.930080,-0.364016,-0.911732,0.727429,2.760339,-0.597615,0.801668,0.013610,-0.829311,-0.182100,-0.194533,-42.555454,28.353970,3.052923,,,,,,,
1500293022.876656,-1.599173,-0.958185,-0.380769,-0.842029,0.763340,2.656407,-0.574775,0.818149,0.016315,-0.852151,-0.198581,-0.197238,-42.555454,28.353970,3.052923,,,,,,,
1500293022.887234,-1.604538,-0.985081,-0.397036,-0.765231,0.761936,2.538852,-0.552481,0.833317,0.018649,-0.893106,-0.269673,-0.205813,-41.742428,29.543312,2.999484,,,,,,,
1500293022.897811,-1.609620,-1.010656,-0.412356,-0.674260,0.729237,2.408918,-0.530905,0.847181,0.020622,-0.968210,-0.359861,-0.210075,-40.124634,31.719410,2.850876,,,,,,,
1500293022.908387,-1.614024,-1.034535,-0.426216,-0.559327,0.689597,2.243444,-0.510449,0.859625,0.022079,-0.988666,-0.372305,-0.211533,-40.124634,31.719410,2.850876,,,,,,,
1500293022.918965,-1.617433,-1.056547,-0.437952,-0.428951,0.616325,2.057014,-0.491346,0.870662,0.022932,-1.007769,-0.383342,-0.212385,-39.339916,32.694702,2.768031,,,,,,,
1500293022.940118,-1.622832,-1.094038,-0.455022,-0.223184,0.320891,1.601612,-0.458280,0.888487,0.023869,-1.122500,-0.447050,-0.191975,-37.882034,34.387901,2.580330,,,,,,,
1500293022.929542,-1.620129,-1.076578,-0.447529,-0.317400,0.509393,1.857005,-0.473766,0.880340,0.023391,-1.107014,-0.438903,-0.191497,-37.882034,34.387901,2.580330,,,,,,,
1500293022.950696,-1.626280,-1.109034,-0.460686,-0.143590,0.094699,1.375447,-0.444841,0.895269,0.024707,-1.327803,-0.300619,-0.137286,-37.235695,35.092319,2.503391,,,,,,,
1500293022.961273,-1.628863,-1.122634,-0.462611,0.044155,-0.132808,1.275201,-0.432580,0.901245,0.025147,-1.365989,-0.323623,-0.168930,-36.157501,36.202316,2.502438,,,,,,,
1500293022.971849,-1.628138,-1.136134,-0.459020,0.278367,-0.269419,1.262161,-0.420412,0.907012,0.024134,-1.378157,-0.329391,-0.167917,-36.157501,36.202316,2.502438,,,,,,,
1500293022.982427,-1.622350,-1.149047,-0.449252,0.498642,-0.297743,1.163927,-0.408813,0.912374,0.021095,-1.365403,-0.535559,-0.140006,-35.662468,36.688313,2.527975,,,,,,,
1500293022.993004,-1.612045,-1.159578,-0.434681,0.624492,-0.275999,0.889792,-0.399387,0.916634,0.016484,-1.364179,-0.736276,-0.012928,-34.723103,37.587231,2.396001,,,,,,,
1500293023.003580,-1.598650,-1.165944,-0.418099,0.645277,-0.125940,0.467008,-0.393730,0.919161,0.010970,-1.369835,-0.738802,-0.007414,-34.723103,37.587231,2.396001,,,,,,,
1500293023.014158,-1.582615,-1.167102,-0.401557,0.602494,0.156442,-0.022465,-0.392791,0.919616,0.004642,-1.370774,-0.739257,-0.001087,-34.401138,37.892010,2.234210,,,,,,,
1500293023.024735,-1.565005,-1.162651,-0.387413,0.500482,0.534723,-0.557981,-0.396901,0.917859,-0.002299,-1.258159,-0.869015,0.133891,-34.329430,37.985611,1.678705,,,,,,,
1500293023.035311,-1.546259,-1.152588,-0.376436,0.405263,0.913974,-1.069026,-0.406002,0.913818,-0.009964,-1.249058,-0.864975,0.141556,-34.329430,37.985611,1.678705,,,,,,,
1500293023.045889,-1.527357,-1.137564,-0.368979,0.317241,1.214109,-1.514329,-0.419411,0.907613,-0.018230,-1.006431,-0.852010,0.233532,-34.615372,37.741646,1.256502,,,,,,,
1500293023.056466,-1.509057,-1.118537,-0.364091,0.291065,1.329713,-1.862564,-0.436166,0.899462,-0.026963,-0.755240,-0.722659,0.221436,-35.733841,36.705658,0.147948,,,,,,,
1500293023.067042,-1.491524,-1.096770,-0.359790,0.344143,1.264158,-2.089263,-0.455039,0.889738,-0.036148,-0.736367,-0.712934,0.230621,-35.733841,36.705658,0.147948,,,,,,,
1500293023.077620,-1.475082,-1.073445,-0.354020,0.482255,0.989654,-2.193324,-0.474916,0.878849,-0.045596,-0.549651,-0.577152,0.165515,-36.472099,35.969376,-0.473865,,,,,,,
1500293023.098773,-1.449433,-1.024581,-0.334301,0.850598,-0.004022,-2.252864,-0.515636,0.854496,-0.062889,-0.508930,-0.552800,0.182807,-38.058479,34.250736,-1.635114,,,,,,,
1500293023.088197,-1.460592,-1.049269,-0.345549,0.674511,0.552742,-2.240598,-0.495182,0.867059,-0.054793,-0.529384,-0.565363,0.174712,-38.058479,34.250736,-1.635114,,,,,,,
1500293023.109351,-1.442732,-0.999863,-0.320914,0.988429,-0.587663,-2.227270,-0.535992,0.841397,-0.069019,-0.447498,-0.411602,0.149021,-38.854351,33.321487,-2.062110,,,,,,,
1500293023.130504,-1.444312,-0.950931,-0.291121,1.119707,-1.585735,-2.174011,-0.576285,0.813956,-0.073282,-0.474252,-0.262565,0.147760,-40.405510,31.403030,-2.340824,,,,,,,
1500293023.119928,-1.441169,-0.975295,-0.306336,1.069789,-1.133826,-2.199015,-0.556218,0.827867,-0.072508,-0.494319,-0.276476,0.146986,-40.405510,31.403030,-2.340824,,,,,,,
1500293023.141082,-1.451035,-0.926624,-0.275970,1.120048,-1.848873,-2.184886,-0.596235,0.799597,-0.071749,-0.602206,-0.177847,0.160800,-41.152229,30.431629,-2.155113,,,,,,,
1500293023.151659,-1.460242,-0.901987,-0.261891,1.057824,-1.934080,-2.232896,-0.616267,0.784560,-0.068410,-0.709005,-0.123657,0.185872,-42.577766,28.455776,-1.279444,,,,,,,
1500293023.162235,-1.470630,-0.876713,-0.249864,0.927288,-1.831598,-2.327784,-0.636475,0.768641,-0.063968,-0.688797,-0.107737,0.181430,-42.577766,28.455776,-1.279444,,,,,,,
1500293023.172813,-1.481201,-0.850256,-0.240609,0.758924,-1.598181,-2.473486,-0.657144,0.751449,-0.059035,-0.738775,-0.073532,0.203963,-43.263954,27.421818,-0.713346,,,,,,,
1500293023.193966,-1.499762,-0.791982,-0.232510,0.316069,-0.884951,-2.886130,-0.700665,0.711747,-0.049855,-0.695255,-0.033829,0.194783,-44.627506,25.149155,0.374882,,,,,,,
1500293023.183390,-1.491150,-0.822183,-0.234881,0.526694,-1.251943,-2.666380,-0.678466,0.732633,-0.054152,-0.717454,-0.054716,0.199080,-44.627506,25.149155,0.374882,,,,,,,
1500293023.204544,-1.506878,-0.759740,-0.232910,0.136929,-0.572447,-3.093901,-0.723535,0.688733,-0.046310,-0.635749,0.034671,0.165939,-45.326729,23.855328,0.803488,,,,,,,
1500293023.215121,-1.512440,-0.726011,-0.234881,0.040231,-0.345326,-3.221348,-0.746556,0.663892,-0.043616,-0.464519,0.081699,0.079459,-46.748451,20.904215,1.353058,,,,,,,
1500293023.225697,-1.516157,-0.691436,-0.237196,0.012192,-0.174383,-3.290362,-0.769182,0.637644,-0.042070,-0.441893,0.107947,0.077912,-46.748451,20.904215,1.353058,,,,,,,
1500293023.236275,-1.518796,-0.656396,-0.239383,0.022241,-0.105270,-3.321901,-0.791126,0.610265,-0.041176,-0.292172,0.166651,0.012779,-47.432529,19.291498,1.492698,,,,,,,
1500293023.246852,-1.520703,-0.621284,-0.240990,0.060002,-0.089630,-3.320652,-0.812112,0.582079,-0.040716,-0.168784,0.190244,-0.007182,-48.662384,15.924913,1.613720,,,,,,,
1500293023.257428,-1.522368,-0.586339,-0.241762,0.116155,-0.128567,-3.296397,-0.831995,0.553316,-0.040324,-0.148901,0.219008,-0.007574,-48.662384,15.924913,1.613720,,,,,,,
1500293023.268006,-1.524173,-0.551859,-0.241689,0.175324,-0.193209,-3.235542,-0.850626,0.524272,-0.039688,-0.130270,0.248052,-0.008210,-49.189068,14.210620,1.651755,,,,,,,
1500293023.278583,-1.526459,-0.518429,-0.241133,0.191531,-0.251003,-3.126893,-0.867745,0.495517,-0.038499,-0.049629,0.262388,0.000962,-50.042316,10.805924,1.798089,,,,,,,
1500293023.289159,-1.528962,-0.486124,-0.240606,0.164348,-0.262815,-3.022903,-0.883377,0.467203,-0.036977,-0.033997,0.290701,-0.000560,-50.042316,10.805924,1.798089,,,,,,,
1500293023.299737,-1.531759,-0.454691,-0.240593,0.108084,-0.265852,-2.949439,-0.897712,0.439185,-0.035062,0.003440,0.299188,0.034696,-50.364876,9.162558,1.913474,,,,,,,
1500293023.320890,-1.538010,-0.394290,-0.242118,0.022546,-0.262426,-2.789040,-0.922773,0.384153,-0.030265,0.030729,0.347033,0.006858,-50.829075,5.991397,2.177779,,,,,,,
1500293023.310314,-1.534866,-0.424087,-0.241218,0.036569,-0.268814,-2.882078,-0.910827,0.411489,-0.032741,0.018783,0.319697,0.009334,-50.829075,5.991397,2.177779,,,,,,,
1500293023.331468,-1.540906,-0.365677,-0.242523,0.056599,-0.262318,-2.676499,-0.933465,0.357582,-0.027909,0.065423,0.351433,-0.041991,-50.980927,4.449492,2.319825,,,,,,,
1500293023.342045,-1.543576,-0.338122,-0.242248,0.106110,-0.264528,-2.576221,-0.943030,0.331716,-0.025676,0.076529,0.374751,-0.032795,-51.138580,1.527140,2.597699,,,,,,,
1500293023.352621,-1.546210,-0.311519,-0.241675,0.118144,-0.266497,-2.496704,-0.951581,0.306505,-0.023401,0.085081,0.399962,-0.035071,-51.138580,1.527140,2.597699,,,,,,,
1500293023.363199,-1.548587,-0.285784,-0.240959,0.110199,-0.244316,-2.414620,-0.959204,0.281910,-0.021307,0.092703,0.424557,-0.037165,-51.153721,0.149214,2.740284,,,,,,,
1500293023.373776,-1.551011,-0.260702,-0.240372,0.100037,-0.242487,-2.350972,-0.966020,0.257759,-0.019116,0.112779,0.435066,-0.011875,-51.078415,-2.479146,3.013948,,,,,,,
1500293023.384352,-1.553317,-0.236442,-0.239978,0.070961,-0.220212,-2.276208,-0.972029,0.234246,-0.016992,0.118788,0.458580,-0.013999,-51.078415,-2.479146,3.013948,,,,,,,
1500293023.394930,-1.555482,-0.212763,-0.240058,0.017403,-0.197688,-2.224667,-0.977337,0.211162,-0.014969,0.134395,0.470540,0.011261,-50.994087,-3.733890,3.145707,,,,,,,
1500293023.405507,-1.557637,-0.189825,-0.240713,-0.044663,-0.187402,-2.154813,-0.981952,0.188687,-0.012923,0.142795,0.501270,0.033919,-50.746647,-6.136743,3.369386,,,,,,,
1500293023.416083,-1.559616,-0.167622,-0.242112,-0.126690,-0.151746,-2.083611,-0.985923,0.166838,-0.011024,0.146766,0.523119,0.032020,-50.746647,-6.136743,3.369386,,,,,,,
1500293023.426661,-1.561323,-0.146333,-0.244330,-0.209006,-0.117527,-1.987941,-0.989268,0.145811,-0.009372,0.165873,0.546037,0.042514,-50.588467,-7.283916,3.462077,,,,,,,
,,,,,,,,,,,,,,,,46.907995,-94.376836,436.222656,0.410000,34.804688,1500293022.999922,
1500293023.437238,-1.562459,-0.126042,-0.247315,-0.281721,-0.055491,-1.898285,-0.992033,0.125709,-0.008271,0.168638,0.566140,0.041413,-50.222912,-9.445690,3.559839,,,,,,,
1500293023.447814,-1.563034,-0.106625,-0.251086,-0.354306,-0.000573,-1.822118,-0.994291,0.106423,-0.007718,0.170896,0.585425,0.040860,-50.222912,-9.445690,3.559839,,,,,,,
1500293023.458392,-1.562838,-0.088043,-0.255328,-0.396258,0.081988,-1.736079,-0.996095,0.087930,-0.007927,0.199312,0.591865,0.032952,-50.023911,-10.452021,3.549394,,,,,,,
1500293023.468969,-1.561854,-0.070557,-0.259887,-0.423136,0.142659,-1.635462,-0.997472,0.070499,-0.008920,0.198140,0.635587,0.029290,-49.605122,-12.329855,3.397219,,,,,,,
1500293023.479545,-1.560256,-0.054059,-0.264720,-0.447661,0.186468,-1.539812,-0.998484,0.054033,-0.010524,0.199152,0.652053,0.030895,-49.605122,-12.329855,3.397219,,,,,,,
1500293023.490123,-1.558250,-0.038683,-0.270045,-0.505379,0.225348,-1.429464,-0.999173,0.038674,-0.012536,0.199369,0.730446,0.066980,-49.393112,-13.188928,3.256881,,,,,,,
1500293023.500700,-1.555499,-0.024896,-0.276270,-0.591816,0.302443,-1.269984,-0.999573,0.024893,-0.015292,0.283234,0.767084,0.116869,-48.978092,-14.732779,2.885499,,,,,,,
1500293023.511276,-1.551413,-0.013284,-0.283639,-0.708190,0.434577,-1.052734,-0.999724,0.013284,-0.019380,0.283385,0.778693,0.120958,-48.978092,-14.732779,2.885499,,,,,,,
1500293023.521854,-1.545357,-0.004358,-0.292175,-0.815294,0.632789,-0.800959,-0.999667,0.004358,-0.025437,0.413516,0.735052,0.135895,-48.793766,-15.380768,2.614425,,,,,,,
1500293023.532431,-1.536990,0.001615,-0.301651,-0.899134,0.847579,-0.517325,-0.999427,-0.001615,-0.033800,0.413276,0.741025,0.144258,-48.532322,-16.302860,1.750721,,,,,,,
1500293023.543007,-1.526366,0.004419,-0.311993,-0.986582,1.050275,-0.231290,-0.999003,-0.004419,-0.044415,0.412852,0.743829,0.154874,-48.532322,-16.302860,1.750721,,,,,,,
1500293023.553585,-1.513835,0.003880,-0.322778,-1.024790,1.222598,0.068030,-0.998371,-0.003880,-0.056930,0.579090,0.635319,0.152938,-48.468525,-16.545786,1.128576,,,,,,,
1500293023.564162,-1.500367,0.000209,-0.333326,-1.006691,1.276648,0.353343,-0.997521,-0.000209,-0.070372,0.699852,0.481990,0.118788,-48.475330,-16.558846,-0.426127,,,,,,,
1500293023.574738,-1.487385,-0.006449,-0.342659,-0.889929,1.199068,0.627001,-0.996503,0.006448,-0.083312,0.698834,0.475332,0.131729,-48.475330,-16.558846,-0.426127,,,,,,,
1500293023.585316,-1.476394,-0.015804,-0.349988,-0.726231,0.987621,0.876808,-0.995423,0.015803,-0.094250,0.688828,0.369222,0.109830,-48.537670,-16.333103,-1.248727,,,,,,,
1500293023.595893,-1.468551,-0.027135,-0.355146,-0.546883,0.662043,1.062500,-0.994411,0.027131,-0.102030,0.583248,0.351882,0.139109,-48.768345,-15.468518,-2.570612,,,,,,,
1500293023.606469,-1.464858,-0.040058,-0.358258,-0.380546,0.256982,1.227074,-0.993596,0.040047,-0.105655,0.582433,0.338966,0.142734,-48.768345,-15.468518,-2.570612,,,,,,,
1500293023.617047,-1.465575,-0.054220,-0.359672,-0.246782,-0.170567,1.347538,-0.993008,0.054193,-0.104873,0.581845,0.324820,0.141952,-48.928936,-14.884289,-2.941405,,,,,,,
1500293023.627624,-1.470396,-0.069464,-0.359795,-0.132732,-0.543653,1.457234,-0.992565,0.069408,-0.099990,0.454509,0.356648,0.185210,-49.328133,-13.497413,-2.964781,,,,,,,
1500293023.638200,-1.478707,-0.085819,-0.359035,-0.059824,-0.866033,1.573299,-0.992098,0.085714,-0.091621,0.454043,0.340342,0.176841,-49.328133,-13.497413,-2.964781,,,,,,,
1500293023.648778,-1.489457,-0.103092,-0.357618,0.006754,-1.073430,1.661701,-0.991402,0.102910,-0.080818,0.340721,0.401591,0.206169,-49.553127,-12.715906,-2.650997,,,,,,,
1500293023.669931,-1.513378,-0.140946,-0.354747,-0.011437,-1.131103,1.890304,-0.988452,0.140480,-0.056818,0.242709,0.428337,0.232111,-50.009865,-10.987721,-1.586754,,,,,,,
1500293023.659355,-1.501421,-0.121383,-0.355993,0.022938,-1.164953,1.761646,-0.990254,0.121085,-0.068810,0.244512,0.447732,0.244103,-50.009865,-10.987721,-1.586754,,,,,,,
1500293023.680509,-1.524271,-0.161788,-0.354539,-0.113479,-0.990660,1.992550,-0.985873,0.161083,-0.045902,0.219317,0.410786,0.287692,-50.224529,-10.039573,-0.968538,,,,,,,
1500293023.701662,-1.540809,-0.207068,-0.360482,-0.538770,-0.558702,2.211353,-0.978198,0.205591,-0.029342,0.238025,0.342245,0.316375,-50.608173,-7.939557,0.104723,,,,,,,
1500293023.691086,-1.533440,-0.183782,-0.356166,-0.284870,-0.788576,2.097569,-0.982474,0.182749,-0.036718,0.242300,0.365087,0.323752,-50.608173,-7.939557,0.104723,,,,,,,
1500293023.712240,-1.546491,-0.231548,-0.368108,-0.848006,-0.319077,2.322786,-0.973025,0.229484,-0.023655,0.232852,0.318352,0.310688,-50.771965,-6.798606,0.470298,,,,,,,
1500293023.722817,-1.550736,-0.257252,-0.379420,-1.178439,-0.081820,2.431784,-0.966898,0.254424,-0.019399,0.259135,0.270997,0.297658,-51.037193,-4.337404,0.791225,,,,,,,
1500293023.733393,-1.553690,-0.284068,-0.394434,-1.493469,0.157891,2.534658,-0.959783,0.280263,-0.016420,0.252019,0.245158,0.294679,-51.037193,-4.337404,0.791225,,,,,,,
1500293023.743971,-1.556110,-0.312017,-0.413110,-1.804047,0.328760,2.638467,-0.951614,0.306979,-0.013977,0.241454,0.216214,0.236313,-51.132675,-3.019464,0.752901,,,,,,,
1500293023.754548,-1.558711,-0.340784,-0.434992,-2.051946,0.446747,2.707731,-0.942424,0.334226,-0.011390,0.191905,0.232165,0.133857,-51.225349,-0.213140,0.390917,,,,,,,
1500293023.765124,-1.561897,-0.370153,-0.459393,-2.227985,0.517659,2.765715,-0.932235,0.361758,-0.008297,0.181716,0.204633,0.130764,-51.225349,-0.213140,0.390917,,,,,,,
1500293023.775702,-1.565720,-0.399797,-0.485435,-2.320009,0.573083,2.790511,-0.921128,0.389231,-0.004676,0.102311,0.230474,0.007927,-51.211639,1.257078,0.149920,,,,,,,
1500293023.786279,-1.570577,-0.429326,-0.512462,-2.351745,0.562357,2.779487,-0.909247,0.416258,-0.000199,0.090430,0.203447,0.003449,-51.047867,4.271984,-0.316485,,,,,,,
1500293023.796855,-1.576440,-0.458481,-0.539770,-2.307896,0.549253,2.754915,-0.896711,0.442587,0.005061,0.077894,0.177118,-0.001811,-51.047867,4.271984,-0.316485,,,,,,,
1500293023.807433,-1.583275,-0.487246,-0.566975,-2.248917,0.513239,2.734020,-0.883557,0.468194,0.011026,0.002972,0.179221,-0.096567,-50.897949,5.778312,-0.494342,,,,,,,
1500293023.818010,-1.591444,-0.515691,-0.594276,-2.210148,0.454095,2.726394,-0.869767,0.493136,0.017961,-0.052887,0.178464,-0.141954,-50.470119,8.746708,-0.704937,,,,,,,
1500293023.828586,-1.600720,-0.544101,-0.621884,-2.175098,0.446578,2.750800,-0.855210,0.517649,0.025598,-0.067443,0.153951,-0.149591,-50.470119,8.746708,-0.704937,,,,,,,
1500293023.839164,-1.610823,-0.572766,-0.650315,-2.188574,0.478690,2.804787,-0.839732,0.541958,0.033630,-0.121571,0.139575,-0.143752,-50.192951,10.216716,-0.721755,,,,,,,
1500293023.849741,-1.621724,-0.601910,-0.680147,-2.233918,0.557760,2.877354,-0.823187,0.566218,0.041959,-0.215738,0.100225,-0.152524,-49.494339,13.194090,-0.679132,,,,,,,
1500293023.860317,-1.633018,-0.631418,-0.711819,-2.298925,0.697353,2.936732,-0.805629,0.590290,0.050192,-0.233296,0.076153,-0.160757,-49.494339,13.194090,-0.679132,,,,,,,
1500293023.870895,-1.644531,-0.660994,-0.745320,-2.344624,0.858956,2.964366,-0.787237,0.613902,0.058152,-0.338083,0.022435,-0.206391,-49.062946,14.718367,-0.656982,,,,,,,
1500293023.881472,-1.656273,-0.690409,-0.780319,-2.349043,0.988023,2.979586,-0.768171,0.636852,0.065821,-0.357149,-0.000515,-0.214060,-48.033745,17.790804,-0.693803,,,,,,,
1500293023.892048,-1.668311,-0.719443,-0.816065,-2.295518,1.066606,2.962725,-0.748600,0.658965,0.073232,-0.376721,-0.022628,-0.221471,-48.033745,17.790804,-0.693803,,,,,,,
1500293023.902626,-1.680854,-0.747701,-0.851548,-2.161574,1.053807,2.894011,-0.728818,0.679955,0.080537,-0.525775,-0.056404,-0.294237,-47.441849,19.311878,-0.746127,,,,,,,
1500293023.913203,-1.693983,-0.774761,-0.885599,-1.962608,0.944769,2.778335,-0.709173,0.699546,0.087805,-0.687601,-0.129828,-0.369162,-46.145367,22.229759,-0.823207,,,,,,,
1500293023.923779,-1.708224,-0.800241,-0.917434,-1.730674,0.727305,2.631586,-0.689967,0.717524,0.095422,-0.706807,-0.147806,-0.376779,-46.145367,22.229759,-0.823207,,,,,,,
1500293023.934357,-1.723715,-0.824185,-0.946677,-1.496350,0.479767,2.472475,-0.671230,0.733995,0.103451,-0.819782,-0.232789,-0.410763,-45.474525,23.572672,-0.794525,,,,,,,
1500293023.944934,-1.740400,-0.846531,-0.973501,-1.290329,0.247903,2.319575,-0.653078,0.748986,0.111839,-0.912443,-0.311807,-0.397575,-44.148365,25.979074,-0.494183,,,,,,,
1500293023.955510,-1.757665,-0.867369,-0.998093,-1.104156,0.092065,2.174352,-0.635574,0.762630,0.120171,-0.929947,-0.325450,-0.405907,-44.148365,25.979074,-0.494183,,,,,,,
1500293023.966088,-1.774603,-0.886658,-1.020947,-0.976330,0.052352,2.014983,-0.618925,0.774964,0.127917,-0.946596,-0.337784,-0.413653,-43.507851,27.041513,-0.240062,,,,,,,
1500293023.976665,-1.790715,-0.904157,-1.042886,-0.903417,0.119044,1.847544,-0.603455,0.785904,0.134893,-1.008880,-0.422180,-0.373006,-42.291405,28.906496,0.293519,,,,,,,
1500293023.987242,-1.805637,-0.919516,-1.064579,-0.898243,0.241706,1.643696,-0.589565,0.795309,0.141056,-1.022770,-0.431585,-0.379170,-42.291405,28.906496,0.293519,,,,,,,
1500293023.997819,-1.819912,-0.932301,-1.086634,-0.940049,0.335663,1.416528,-0.577590,0.802993,0.146939,-1.106248,-0.443527,-0.324674,-41.734192,29.702461,0.505619,,,,,,,
1500293024.008396,-1.834306,-0.942553,-1.108962,-0.968239,0.342493,1.207342,-0.567437,0.809061,0.153085,-1.208823,-0.321680,-0.344293,-40.793041,30.975182,0.836953,,,,,,,
1500293024.018972,-1.848437,-0.951430,-1.130567,-0.902347,0.317989,1.108058,-0.558289,0.814246,0.159113,-1.217972,-0.326865,-0.350321,-40.793041,30.975182,0.836953,,,,,,,
1500293024.029550,-1.860597,-0.960125,-1.149506,-0.708628,0.309660,1.069892,-0.549507,0.819263,0.163861,-1.189751,-0.406879,-0.453701,-40.407524,31.471365,1.009937,,,,,,,
1500293024.040127,-1.869516,-0.968752,-1.164235,-0.460132,0.301714,0.983950,-0.541248,0.824180,0.166669,-1.173520,-0.534690,-0.449216,-39.688786,32.364506,1.254381,,,,,,,
1500293024.050703,-1.874727,-0.976572,-1.174213,-0.237824,0.277689,0.813537,-0.534206,0.828583,0.167553,-1.180562,-0.539094,-0.450100,-39.688786,32.364506,1.254381,,,,,,,
1500293024.061281,-1.876868,-0.982549,-1.179865,-0.079503,0.226727,0.562317,-0.529114,0.831915,0.167201,-1.185653,-0.542425,-0.449748,-39.365993,32.755894,1.266776,,,,,,,
1500293024.071858,-1.875978,-0.986186,-1.181607,0.045152,0.224381,0.281965,-0.526374,0.833927,0.165820,-1.149011,-0.649418,-0.386370,-38.935989,33.270203,1.147675,,,,,,,
1500293024.082434,-1.871117,-0.987400,-1.179322,0.186560,0.311311,0.008082,-0.526206,0.834597,0.162960,-1.149179,-0.650087,-0.383510,-38.935989,33.270203,1.147675,,,,,,,
1500293024.093012,-1.861267,-0.986299,-1.172603,0.348184,0.435682,-0.269337,-0.528665,0.833990,0.158032,-1.049459,-0.742254,-0.348858,-38.864357,33.357891,1.023419,,,,,,,
1500293024.103589,-1.845937,-0.982991,-1.160865,0.555666,0.552684,-0.539492,-0.533678,0.832160,0.150657,-0.863325,-0.825095,-0.305977,-39.011368,33.198257,0.472621,,,,,,,
1500293024.114165,-1.825360,-0.977497,-1.144028,0.774707,0.641798,-0.798762,-0.541081,0.829101,0.140794,-0.855922,-0.822036,-0.296113,-39.011368,33.198257,0.472621,,,,,,,
1500293024.124743,-1.801099,-0.969473,-1.122687,0.969919,0.605523,-1.075655,-0.550797,0.824588,0.129141,-0.694976,-0.792941,-0.232260,-39.224056,32.950077,0.019846,,,,,,,
1500293024.135320,-1.775386,-0.958868,-1.097468,1.149096,0.419403,-1.338467,-0.562467,0.818542,0.116708,-0.683307,-0.786895,-0.219827,-39.909286,32.097183,-1.119836,,,,,,,
1500293024.145896,-1.750485,-0.945878,-1.069626,1.304822,0.130123,-1.542946,-0.575612,0.811011,0.104559,-0.670162,-0.779364,-0.207677,-39.909286,32.097183,-1.119836,,,,,,,
1500293024.156474,-1.727614,-0.931254,-1.039376,1.474720,-0.241972,-1.674361,-0.589505,0.802369,0.093210,-0.551365,-0.669785,-0.168039,-40.373024,31.487591,-1.668880,,,,,,,
1500293024.167052,-1.707905,-0.915471,-1.007359,1.620429,-0.657874,-1.766775,-0.603698,0.792850,0.083295,-0.484223,-0.554920,-0.144178,-41.446541,30.005424,-2.468479,,,,,,,
1500293024.177628,-1.692083,-0.898523,-0.974401,1.717878,-1.055607,-1.859066,-0.618192,0.782408,0.075348,-0.469729,-0.544477,-0.136231,-41.446541,30.005424,-2.468479,,,,,,,
1500293024.188205,-1.680612,-0.880698,-0.941884,1.725604,-1.373883,-1.914228,-0.632778,0.771184,0.069770,-0.486668,-0.406956,-0.072669,-42.027344,29.170523,-2.649059,,,,,,,
1500293024.198782,-1.673035,-0.862063,-0.910874,1.674774,-1.567777,-1.962698,-0.647474,0.759187,0.066428,-0.547045,-0.298997,-0.044837,-43.234001,27.362841,-2.516092,,,,,,,
1500293024.209358,-1.668437,-0.842606,-0.882032,1.579765,-1.627484,-2.021582,-0.662350,0.746380,0.064878,-0.532169,-0.286190,-0.043287,-43.234001,27.362841,-2.516092,,,,,,,
1500293024.219936,-1.665590,-0.822362,-0.855423,1.473445,-1.571215,-2.084871,-0.677437,0.732755,0.064410,-0.577949,-0.235257,-0.047610,-43.837154,26.409445,-2.253871,,,,,,,
1500293024.230513,-1.663261,-0.801173,-0.830932,1.373605,-1.415756,-2.167335,-0.692892,0.718173,0.064251,-0.562494,-0.220675,-0.047451,-45.013622,24.403210,-1.578468,,,,,,,
1500293024.241089,-1.660717,-0.778788,-0.808825,1.236595,-1.179145,-2.271452,-0.708890,0.702417,0.063917,-0.546497,-0.204920,-0.047117,-45.013622,24.403210,-1.578468,,,,,,,
1500293024.251667,-1.657508,-0.754726,-0.789387,1.077840,-0.896232,-2.416960,-0.725722,0.685089,0.063087,-0.561784,-0.165680,-0.038489,-45.586895,23.333920,-1.264052,,,,,,,
1500293024.262244,-1.653450,-0.728797,-0.772687,0.902761,-0.619177,-2.579607,-0.743429,0.665973,0.061588,-0.522760,-0.111835,-0.022724,-46.726372,20.980106,-0.846138,,,,,,,
1500293024.272820,-1.649139,-0.701208,-0.758953,0.724784,-0.389508,-2.710630,-0.761720,0.645141,0.059798,-0.504470,-0.091003,-0.020934,-46.726372,20.980106,-0.846138,,,,,,,
1500293024.283398,-1.644749,-0.672301,-0.747505,0.596827,-0.237488,-2.808987,-0.780252,0.622788,0.057807,-0.399436,-0.026170,-0.058997,-47.292976,19.673399,-0.752563,,,,,,,
1500293024.293975,-1.640344,-0.642637,-0.737609,0.524732,-0.134272,-2.861105,-0.798583,0.599308,0.055630,-0.302583,0.036480,-0.111233,-48.372177,16.847904,-0.717883,,,,,,,
1500293024.304551,-1.636102,-0.612471,-0.728616,0.487608,-0.091609,-2.898824,-0.816486,0.574891,0.053397,-0.284680,0.060897,-0.109000,-48.372177,16.847904,-0.717883,,,,,,,
1500293024.315129,-1.632268,-0.582149,-0.720054,0.486507,-0.097564,-2.907413,-0.833705,0.549820,0.051314,-0.267460,0.085968,-0.106917,-48.862595,15.366456,-0.743849,,,,,,,
1500293024.325706,-1.629060,-0.551645,-0.711651,0.498326,-0.136080,-2.922268,-0.850218,0.524089,0.049593,-0.206010,0.153096,-0.135821,-49.715488,12.328300,-0.785877,,,,,,,
1500293024.336282,-1.626784,-0.520926,-0.703482,0.499546,-0.191430,-2.943300,-0.866000,0.497683,0.048536,-0.190229,0.179502,-0.134763,-49.715488,12.328300,-0.785877,,,,,,,
1500293024.346860,-1.625268,-0.490179,-0.695367,0.515784,-0.241024,-2.936178,-0.880940,0.470784,0.048034,-0.140377,0.223476,-0.148955,-50.074455,10.779421,-0.766483,,,,,,,
1500293024.357437,-1.624319,-0.459714,-0.687307,0.523570,-0.259468,-2.902000,-0.894896,0.443692,0.047943,-0.098832,0.269535,-0.163986,-50.650158,7.642431,-0.624170,,,,,,,
1500293024.368013,-1.623643,-0.429629,-0.679290,0.537339,-0.260991,-2.870206,-0.907851,0.416534,0.048022,-0.085878,0.296693,-0.164065,-50.650158,7.642431,-0.624170,,,,,,,
1500293024.378591,-1.623143,-0.399962,-0.671397,0.535691,-0.249328,-2.826105,-0.919814,0.389384,0.048193,-0.043885,0.332754,-0.166601,-50.861771,6.086262,-0.521976,,,,,,,
,,,,,,,,,,,,,,,,46.907990,-94.376831,435.213623,0.500000,34.804688,1500293023.999921,
1500293024.389168,-1.622410,-0.370821,-0.663560,0.548240,-0.195502,-2.773279,-0.930789,0.362381,0.048085,-0.013486,0.369141,-0.161869,-51.137222,3.020805,-0.306220,,,,,,,
1500293024.399744,-1.621247,-0.342164,-0.655645,0.568007,-0.136750,-2.731453,-0.940832,0.335526,0.047506,-0.003443,0.395995,-0.161291,-51.137222,3.020805,-0.306220,,,,,,,
1500293024.410322,-1.619687,-0.314121,-0.647848,0.565124,-0.073360,-2.666335,-0.949932,0.308981,0.046480,0.005657,0.422541,-0.160265,-51.204128,1.523979,-0.221775,,,,,,,
1500293024.420899,-1.617688,-0.286657,-0.640182,0.568273,-0.007458,-2.612226,-0.958140,0.282748,0.044962,0.035853,0.453199,-0.150873,-51.208359,-1.386692,-0.124878,,,,,,,
1500293024.431475,-1.615327,-0.259790,-0.632447,0.595987,0.034183,-2.549676,-0.965486,0.256878,0.043022,0.043199,0.479069,-0.148934,-51.208359,-1.386692,-0.124878,,,,,,,
1500293024.442053,-1.612827,-0.233772,-0.624735,0.606910,0.062367,-2.466363,-0.971940,0.231649,0.040875,0.079042,0.502894,-0.128979,-51.150826,-2.795449,-0.114931,,,,,,,
1500293024.452631,-1.610310,-0.208608,-0.617028,0.607150,0.082077,-2.379404,-0.977556,0.207099,0.038647,0.126894,0.506204,-0.092770,-50.932560,-5.485799,-0.122434,,,,,,,
1500293024.463207,-1.607993,-0.184261,-0.609613,0.599298,0.082662,-2.312093,-0.982392,0.183220,0.036559,0.131730,0.530082,-0.090682,-50.932560,-5.485799,-0.122434,,,,,,,
1500293024.473784,-1.605995,-0.160863,-0.602275,0.601585,0.063592,-2.210611,-0.986478,0.160170,0.034737,0.177457,0.544847,-0.073845,-50.779640,-6.756234,-0.127462,,,,,,,
1500293024.484361,-1.604490,-0.138549,-0.594881,0.625022,0.029997,-2.107987,-0.989855,0.138106,0.033364,0.180834,0.566911,-0.072473,-50.403404,-9.149980,-0.097409,,,,,,,
1500293024.494937,-1.603434,-0.117471,-0.587413,0.637606,0.003440,-1.982074,-0.992579,0.117201,0.032407,0.183558,0.587816,-0.071515,-50.403404,-9.149980,-0.097409,,,,,,,
1500293024.505515,-1.602825,-0.097734,-0.579729,0.670206,-0.029178,-1.856207,-0.994717,0.097578,0.031871,0.230634,0.593721,-0.049784,-50.190132,-10.255898,-0.045245,,,,,,,
1500293024.516093,-1.602523,-0.079212,-0.571989,0.677151,-0.036259,-1.746114,-0.996363,0.079129,0.031622,0.276651,0.593051,-0.018423,-49.740082,-12.253240,0.130975,,,,,,,
1500293024.526669,-1.602079,-0.061709,-0.564116,0.691567,0.003927,-1.655414,-0.997608,0.061670,0.031218,0.277897,0.610510,-0.018019,-49.740082,-12.253240,0.130975,,,,,,,
1500293024.537246,-1.601222,-0.045162,-0.556490,0.664597,0.054891,-1.549942,-0.998518,0.045147,0.030390,0.330488,0.624699,0.051916,-49.508522,-13.156123,0.238739,,,,,,,
1500293024.558399,-1.597730,-0.016725,-0.543712,0.482263,0.200640,-1.231007,-0.999497,0.016725,0.026926,0.378816,0.709670,0.140813,-49.042473,-14.795930,0.388723,,,,,,,
1500293024.547823,-1.599775,-0.030106,-0.549515,0.594796,0.129666,-1.402725,-0.999127,0.030101,0.028962,0.378445,0.696293,0.138778,-49.042473,-14.795930,0.388723,,,,,,,
1500293024.568977,-1.594824,-0.005643,-0.539629,0.319564,0.297628,-0.994276,-0.999695,0.005643,0.024025,0.379014,0.720752,0.143715,-48.824245,-15.500433,0.404820,,,,,,,
1500293024.579555,-1.590498,0.002499,-0.537251,0.168160,0.447181,-0.698606,-0.999803,-0.002499,0.019701,0.453447,0.762341,0.210127,-48.470299,-16.577293,0.241653,,,,,,,
1500293024.590131,-1.584397,0.007243,-0.536595,0.017533,0.619283,-0.361239,-0.999881,-0.007243,0.013600,0.453525,0.767085,0.216228,-48.470299,-16.577293,0.241653,,,,,,,
1500293024.600708,-1.576548,0.008342,-0.537621,-0.134370,0.784085,-0.017782,-0.999949,-0.008342,0.005751,0.577311,0.694087,0.251817,-48.361546,-16.893652,0.013123,,,,,,,
1500293024.611285,-1.567506,0.005739,-0.540401,-0.304427,0.865454,0.340032,-0.999978,-0.005739,-0.003290,0.678475,0.605089,0.260553,-48.318573,-16.998518,-0.774761,,,,,,,
1500293024.621861,-1.558203,-0.000869,-0.544578,-0.430226,0.877714,0.721989,-0.999920,0.000869,-0.012593,0.678418,0.598481,0.269856,-48.318573,-16.998518,-0.774761,,,,,,,
1500293024.632439,-1.549316,-0.011606,-0.549547,-0.500838,0.823520,1.101167,-0.999702,0.011606,-0.021477,0.725242,0.474524,0.235207,-48.386013,-16.774595,-1.281156,,,,,,,
1500293024.643016,-1.541766,-0.026383,-0.554365,-0.479768,0.682323,1.474999,-0.999231,0.026380,-0.029016,0.664697,0.371341,0.185587,-48.701000,-15.721377,-2.298973,,,,,,,
1500293024.653592,-1.536260,-0.044611,-0.558397,-0.419274,0.474081,1.782437,-0.998409,0.044596,-0.034495,0.663876,0.353124,0.191066,-48.701000,-15.721377,-2.298973,,,,,,,
1500293024.664170,-1.533906,-0.065387,-0.561316,-0.318087,0.149505,2.000026,-0.997184,0.065341,-0.036803,0.662650,0.332380,0.193373,-48.936256,-14.905239,-2.703945,,,,,,,
1500293024.674747,-1.535232,-0.087705,-0.562886,-0.190060,-0.203265,2.130594,-0.995526,0.087593,-0.035420,0.487393,0.295220,0.157429,-49.492455,-12.863023,-3.045379,,,,,,,
1500293024.685323,-1.540128,-0.110754,-0.563172,-0.069351,-0.545643,2.184122,-0.993406,0.110527,-0.030475,0.485273,0.272285,0.152485,-49.492455,-12.863023,-3.045379,,,,,,,
1500293024.695901,-1.547898,-0.133926,-0.562544,0.021585,-0.795780,2.191562,-0.990785,0.133526,-0.022691,0.315477,0.282154,0.157655,-49.781227,-11.729043,-2.914378,,,,,,,
1500293024.706479,-1.557026,-0.157161,-0.561369,0.083557,-0.898594,2.202088,-0.987582,0.156514,-0.013600,0.195575,0.315364,0.196050,-50.309788,-9.409305,-2.150617,,,,,,,
1500293024.717055,-1.566523,-0.180459,-0.560184,0.089262,-0.919219,2.211786,-0.983752,0.179481,-0.004204,0.191745,0.292397,0.186653,-50.309788,-9.409305,-2.150617,,,,,,,
1500293024.727632,-1.575804,-0.203949,-0.559607,0.039747,-0.874621,2.226704,-0.979262,0.202538,0.004904,0.107054,0.340736,0.231363,-50.533272,-8.238376,-1.659062,,,,,,,
1500293024.738209,-1.584301,-0.227835,-0.560153,-0.059355,-0.754180,2.272578,-0.974069,0.225869,0.013155,0.079934,0.375221,0.260527,-50.886936,-5.852875,-0.705792,,,,,,,
1500293024.748785,-1.591283,-0.252397,-0.562524,-0.219791,-0.554237,2.346985,-0.968113,0.249726,0.019836,0.073979,0.351364,0.253845,-50.886936,-5.852875,-0.705792,,,,,,,
1500293024.759363,-1.596808,-0.277879,-0.567176,-0.418249,-0.355696,2.447123,-0.961314,0.274317,0.025011,0.067180,0.326773,0.248671,-51.017548,-4.618992,-0.330316,,,,,,,
1500293024.769940,-1.600997,-0.304334,-0.574395,-0.642574,-0.147442,2.544879,-0.953612,0.299658,0.028809,0.086882,0.299463,0.244537,-51.188049,-2.002853,0.083154,,,,,,,
1500293024.780516,-1.604229,-0.331786,-0.584509,-0.885905,0.040250,2.648689,-0.944934,0.325732,0.031603,0.078204,0.273389,0.241743,-51.188049,-2.002853,0.083154,,,,,,,
1500293024.791094,-1.606810,-0.360142,-0.597736,-1.148027,0.223204,2.745157,-0.935240,0.352407,0.033696,0.097944,0.223536,0.217708,-51.223484,-0.611032,0.127739,,,,,,,
1500293024.801671,-1.609282,-0.389274,-0.614129,-1.401867,0.371258,2.828012,-0.924500,0.379517,0.035598,0.091034,0.174423,0.149308,-51.174137,2.332504,-0.039363,,,,,,,
1500293024.812247,-1.612210,-0.418896,-0.633511,-1.628417,0.462839,2.877567,-0.912755,0.406752,0.037822,0.079290,0.147188,0.147084,-51.174137,2.332504,-0.039363,,,,,,,
1500293024.822825,-1.615978,-0.448589,-0.655350,-1.787462,0.527041,2.885453,-0.900141,0.433694,0.040697,0.045664,0.119742,0.049650,-51.080421,3.870735,-0.206737,,,,,,,
1500293024.833402,-1.621002,-0.478086,-0.679201,-1.909883,0.533341,2.873368,-0.886758,0.460081,0.044558,0.032281,0.093356,0.045789,-50.744793,6.992860,-0.548503,,,,,,,
1500293024.843978,-1.627582,-0.507104,-0.704542,-1.972145,0.501078,2.845155,-0.872746,0.485648,0.049612,0.018269,0.067788,0.040735,-50.744793,6.992860,-0.548503,,,,,,,
1500293024.854556,-1.635708,-0.535409,-0.730713,-1.979964,0.447257,2.791100,-0.858249,0.510192,0.055789,-0.031628,0.046311,-0.065112,-50.505890,8.540361,-0.672224,,,,,,,
1500293024.865133,-1.645317,-0.563183,-0.757398,-1.952695,0.396787,2.761497,-0.843213,0.533881,0.062954,-0.084063,0.035974,-0.143429,-49.902264,11.551898,-0.743151,,,,,,,
1500293024.875709,-1.656096,-0.590477,-0.784481,-1.924190,0.374052,2.735677,-0.827655,0.556757,0.070770,-0.099622,0.013097,-0.151245,-49.902264,11.551898,-0.743151,,,,,,,
1500293024.886287,-1.667811,-0.617494,-0.812264,-1.920725,0.389642,2.746750,-0.811498,0.578994,0.078975,-0.123652,-0.029845,-0.182171,-49.541138,13.016439,-0.694631,,,,,,,
1500293024.896865,-1.680431,-0.644841,-0.841421,-1.964968,0.459015,2.822948,-0.794397,0.601071,0.087444,-0.144919,-0.082227,-0.133937,-48.695171,15.898283,-0.509305,,,,,,,
1500293024.907440,-1.693928,-0.673014,-0.873460,-2.109747,0.625752,2.959609,-0.776027,0.623345,0.096039,-0.163289,-0.104501,-0.142533,-48.695171,15.898283,-0.509305,,,,,,,
1500293024.918018,-1.708454,-0.702025,-0.909874,-2.346117,0.880767,3.094281,-0.756313,0.645765,0.104775,-0.254475,-0.071638,-0.115639,-48.190353,17.371092,-0.411779,,,,,,,
1500293024.928596,-1.724329,-0.731355,-0.951187,-2.557290,1.128886,3.188518,-0.735515,0.667879,0.113821,-0.275273,-0.093752,-0.124685,-46.958832,20.469597,-0.313346,,,,,,,
1500293024.939172,-1.741135,-0.760358,-0.995461,-2.587601,1.280892,3.207530,-0.714102,0.689181,0.122830,-0.296686,-0.115054,-0.133694,-46.958832,20.469597,-0.313346,,,,,,,
1500293024.949749,-1.758646,-0.788981,-1.039698,-2.398854,1.244671,3.182715,-0.692174,0.709636,0.131576,-0.477336,-0.108958,-0.316467,-46.237053,22.051559,-0.313241,,,,,,,
1500293024.960327,-1.776349,-0.816738,-1.080807,-2.036245,1.069060,3.062925,-0.670190,0.728917,0.139733,-0.651907,-0.271458,-0.506249,-44.639153,25.129467,-0.300683,,,,,,,
1500293024.970903,-1.794035,-0.842831,-1.116611,-1.593941,0.735012,2.831049,-0.648842,0.746530,0.147302,-0.673256,-0.289071,-0.513818,-44.639153,25.129467,-0.300683,,,,,,,
1500293024.981480,-1.811869,-0.866494,-1.146194,-1.169925,0.311151,2.521732,-0.628778,0.762063,0.154588,-0.821234,-0.384271,-0.553346,-43.813068,26.544168,-0.237801,,,,,,,
1500293025.002633,-1.848554,-0.905496,-1.189710,-0.587576,-0.337031,1.905415,-0.593637,0.786731,0.169262,-0.883613,-0.449298,-0.473157,-42.289364,28.910675,0.131367,,,,,,,
1500293024.992057,-1.830374,-0.887252,-1.170316,-0.850281,-0.086872,2.174694,-0.610387,0.775339,0.162100,-0.866862,-0.437906,-0.465994,-42.289364,28.910675,0.131367,,,,,,,
1500293025.013211,-1.865579,-0.922272,-1.205795,-0.396323,-0.419139,1.751925,-0.577957,0.796976,0.175485,-0.899292,-0.459543,-0.479379,-41.635887,29.841074,0.444560,,,,,,,
1500293025.023788,-1.881026,-0.938309,-1.219437,-0.254990,-0.423265,1.658766,-0.562933,0.806560,0.180466,-0.903269,-0.504344,-0.409378,-40.468620,31.390585,1.075337,,,,,,,
1500293025.034364,-1.894757,-0.953580,-1.231321,-0.150938,-0.372814,1.545068,-0.548661,0.815493,0.184235,-0.917541,-0.513277,-0.413148,-40.468620,31.390585,1.075337,,,,,,,
1500293025.044942,-1.906628,-0.967299,-1.241737,-0.102550,-0.293868,1.361798,-0.535822,0.823356,0.187031,-1.006003,-0.539054,-0.363865,-39.915024,32.082176,1.326496,,,,,,,
1500293025.055519,-1.916251,-0.979127,-1.250207,-0.038562,-0.232778,1.149070,-0.524796,0.830011,0.188867,-1.096358,-0.556238,-0.349817,-38.933144,33.251564,1.666854,,,,,,,
1500293025.066095,-1.922608,-0.988894,-1.256025,0.054189,-0.111141,0.914537,-0.515951,0.835418,0.189397,-1.105204,-0.561645,-0.350346,-38.933144,33.251564,1.666854,,,,,,,
1500293025.076673,-1.924747,-0.996574,-1.258197,0.177897,-0.006148,0.648089,-0.509511,0.839615,0.188270,-1.137035,-0.557312,-0.358818,-38.543839,33.697506,1.756438,,,,,,,
1500293025.087250,-1.922689,-1.002179,-1.256135,0.315279,0.039456,0.403407,-0.505471,0.842647,0.185596,-1.189292,-0.411799,-0.297809,-38.025963,34.284679,1.679737,,,,,,,
1500293025.097826,-1.917718,-1.005690,-1.250480,0.407687,0.003098,0.148644,-0.503602,0.844532,0.182074,-1.191161,-0.413684,-0.294288,-38.025963,34.284679,1.679737,,,,,,,
1500293025.108404,-1.910993,-1.007591,-1.241812,0.490576,-0.081225,-0.012086,-0.503301,0.845548,0.178147,-1.191463,-0.414701,-0.290361,-37.902702,34.427330,1.542327,,,,,,,
1500293025.118981,-1.904031,-1.008528,-1.231381,0.543106,-0.203554,-0.108089,-0.503780,0.846048,0.174380,-1.190129,-0.315531,-0.259417,-37.879105,34.464966,1.254649,,,,,,,
1500293025.129557,-1.895982,-1.009007,-1.218643,0.649834,-0.269380,-0.184336,-0.504784,0.846303,0.170190,-1.189125,-0.315785,-0.255227,-37.879105,34.464966,1.254649,,,,,,,
1500293025.140135,-1.885771,-1.008589,-1.203244,0.745735,-0.262181,-0.320229,-0.506831,0.846080,0.165137,-1.116856,-0.375576,-0.264365,-37.922359,34.421429,1.137767,,,,,,,
1500293025.150712,-1.872872,-1.006430,-1.185028,0.836703,-0.225307,-0.529414,-0.510662,0.844928,0.159128,-1.035817,-0.399478,-0.270655,-38.128357,34.202091,0.824436,,,,,,,
1500293025.161288,-1.856833,-1.002229,-1.163783,0.946702,-0.160627,-0.744621,-0.516549,0.842673,0.151918,-1.029929,-0.397223,-0.263444,-38.128357,34.202091,0.824436,,,,,,,
1500293025.171866,-1.836891,-0.996433,-1.138895,1.126946,-0.074744,-0.912091,-0.524179,0.839539,0.142869,-0.870948,-0.462662,-0.296907,-38.337677,33.972027,0.599069,,,,,,,
1500293025.182443,-1.812535,-0.989259,-1.109343,1.373138,-0.028719,-1.087134,-0.533337,0.835619,0.131500,-0.861790,-0.458743,-0.285537,-38.956650,33.265682,-0.091793,,,,,,,
1500293025.193019,-1.784048,-0.980222,-1.074595,1.642990,-0.053687,-1.291862,-0.544225,0.830621,0.117849,-0.850902,-0.453744,-0.271886,-38.956650,33.265682,-0.091793,,,,,,,
1500293025.203597,-1.753001,-0.968826,-1.035228,1.897552,-0.183354,-1.532492,-0.556894,0.824221,0.102607,-0.692160,-0.504077,-0.235206,-39.354916,32.788498,-0.582757,,,,,,,
1500293025.224751,-1.692710,-0.938031,-0.947592,2.285511,-0.788581,-1.940413,-0.586987,0.806395,0.071919,-0.578769,-0.429824,-0.137104,-40.357811,31.505817,-1.692622,,,,,,,
1500293025.214175,-1.721818,-0.954682,-0.992483,2.113752,-0.436298,-1.756460,-0.571291,0.816130,0.086939,-0.594465,-0.439559,-0.152125,-40.357811,31.505817,-1.692622,,,,,,,
1500293025.235328,-1.667561,-0.919141,-0.901713,2.417768,-1.197889,-2.090298,-0.603666,0.795081,0.058597,-0.484408,-0.340720,-0.077548,-40.962006,30.685383,-2.180827,,,,,,,
1500293025.245905,-1.647667,-0.898645,-0.856341,2.468005,-1.605248,-2.180132,-0.620832,0.782484,0.047818,-0.435274,-0.226377,-0.003384,-42.308598,28.755400,-2.710007,,,,,,,
1500293025.256481,-1.633795,-0.876910,-0.812911,2.430905,-1.960822,-2.243968,-0.638261,0.768766,0.040263,-0.417846,-0.212660,0.004171,-42.308598,28.755400,-2.710007,,,,,,,
,,,,,,,,,,,,,,,,46.907983,-94.376827,436.030212,0.500000,34.804688,1500293024.999922,
1500293025.267059,-1.626115,-0.854643,-0.772493,2.317923,-2.246835,-2.247479,-0.655483,0.754337,0.036297,-0.400623,-0.198230,0.008136,-43.013382,27.693058,-2.679179,,,,,,,
1500293025.277637,-1.623879,-0.832351,-0.735820,2.143772,-2.415890,-2.224750,-0.672191,0.739516,0.035715,-0.373784,-0.095992,0.053137,-44.384628,25.500496,-1.990927,,,,,,,
1500293025.288213,-1.625884,-0.810302,-0.703022,1.947397,-2.470405,-2.180722,-0.688234,0.724495,0.037952,-0.357741,-0.080971,0.050900,-44.384628,25.500496,-1.990927,,,,,,,
1500293025.298790,-1.630757,-0.788455,-0.673863,1.751863,-2.418293,-2.175412,-0.703675,0.709265,0.042244,-0.386290,-0.038443,0.024437,-45.013657,24.414391,-1.393892,,,,,,,
1500293025.309367,-1.637038,-0.766431,-0.648076,1.555847,-2.259672,-2.196583,-0.718810,0.693569,0.047685,-0.407517,-0.018352,-0.021913,-46.123993,22.289211,0.052674,,,,,,,
1500293025.319943,-1.643136,-0.743989,-0.624997,1.399302,-2.005523,-2.236979,-0.733849,0.677228,0.053179,-0.392479,-0.002012,-0.027407,-46.123993,22.289211,0.052674,,,,,,,
1500293025.330521,-1.648063,-0.720863,-0.604201,1.259806,-1.710019,-2.311482,-0.748995,0.660034,0.057988,-0.384245,0.004639,-0.060292,-46.621967,21.213543,0.782608,,,,,,,
1500293025.341099,-1.651528,-0.696825,-0.585426,1.128696,-1.404784,-2.394521,-0.764386,0.641786,0.061844,-0.332858,0.013487,-0.070115,-47.543491,18.969246,2.004720,,,,,,,
1500293025.351675,-1.653343,-0.671545,-0.568519,1.009751,-1.108890,-2.513095,-0.780196,0.622196,0.064549,-0.317048,0.033077,-0.072819,-47.543491,18.969246,2.004720,,,,,,,
1500293025.362252,-1.653634,-0.645092,-0.553383,0.895130,-0.838600,-2.606083,-0.796304,0.601272,0.066116,-0.300940,0.054001,-0.074386,-47.983051,17.770620,2.463001,,,,,,,
1500293025.383405,-1.651677,-0.590225,-0.527718,0.705064,-0.515252,-2.681645,-0.828100,0.556548,0.067124,-0.190394,0.095552,-0.069001,-48.829536,15.181494,3.071346,,,,,,,
1500293025.372829,-1.652826,-0.617862,-0.539816,0.796339,-0.636293,-2.662659,-0.812378,0.579294,0.066789,-0.206116,0.072806,-0.068666,-48.829536,15.181494,3.071346,,,,,,,
1500293025.393983,-1.650635,-0.562615,-0.516806,0.639123,-0.453718,-2.667863,-0.843169,0.533400,0.067461,-0.085878,0.123735,-0.065722,-49.219162,13.822045,3.264939,,,,,,,
1500293025.404561,-1.650240,-0.535279,-0.506861,0.580920,-0.455211,-2.629877,-0.857413,0.510081,0.068260,0.012733,0.136388,-0.085349,-49.887707,11.071299,3.588570,,,,,,,
1500293025.415137,-1.650779,-0.508455,-0.497844,0.522327,-0.485914,-2.567538,-0.870705,0.486828,0.069790,0.026024,0.159641,-0.086880,-49.887707,11.071299,3.588570,,,,,,,
1500293025.425714,-1.652395,-0.482375,-0.489794,0.451803,-0.525148,-2.495432,-0.882948,0.463884,0.072208,0.078169,0.173033,-0.094318,-50.157497,9.707985,3.770281,,,,,,,
1500293025.436292,-1.654979,-0.457004,-0.482575,0.384836,-0.558347,-2.423306,-0.894201,0.441261,0.075454,0.089422,0.195656,-0.097564,-50.559834,7.070786,4.235773,,,,,,,
1500293025.446868,-1.658228,-0.432303,-0.476438,0.300377,-0.555256,-2.355906,-0.904535,0.418963,0.079287,0.099756,0.217954,-0.101397,-50.559834,7.070786,4.235773,,,,,,,
1500293025.457445,-1.661967,-0.408250,-0.471579,0.185289,-0.535258,-2.284734,-0.914005,0.397004,0.083562,0.134174,0.227126,-0.107854,-50.697739,5.799482,4.509999,,,,,,,
1500293025.468023,-1.666050,-0.385002,-0.467980,0.079435,-0.510613,-2.195198,-0.922596,0.375561,0.088148,0.171208,0.250309,-0.127561,-50.865696,3.349796,5.068964,,,,,,,
1500293025.478599,-1.670041,-0.362684,-0.465347,0.005496,-0.453428,-2.103113,-0.930348,0.354784,0.092636,0.178959,0.271085,-0.132050,-50.865696,3.349796,5.068964,,,,,,,
1500293025.489176,-1.673699,-0.341226,-0.463513,-0.059027,-0.387836,-2.007332,-0.937360,0.334643,0.096799,0.182859,0.305830,-0.167294,-50.901852,2.186041,5.334525,,,,,,,
1500293025.499754,-1.676641,-0.320789,-0.462323,-0.103407,-0.293289,-1.911452,-0.943676,0.315315,0.100258,0.199139,0.327492,-0.200844,-50.901733,-0.006962,5.766084,,,,,,,
1500293025.510330,-1.678827,-0.301265,-0.461519,-0.127741,-0.208392,-1.819304,-0.949395,0.296728,0.102964,0.204858,0.346079,-0.203550,-50.901733,-0.006962,5.766084,,,,,,,
1500293025.520907,-1.680421,-0.282755,-0.460794,-0.122733,-0.158546,-1.727329,-0.954526,0.279002,0.105061,0.214399,0.381017,-0.222401,-50.874550,-1.030803,5.912018,,,,,,,
1500293025.531485,-1.681446,-0.265178,-0.460178,-0.127173,-0.101479,-1.631645,-0.959144,0.262081,0.106564,0.219017,0.397938,-0.223904,-50.779945,-2.927777,6.087679,,,,,,,
1500293025.542061,-1.681962,-0.248625,-0.459568,-0.115145,-0.054092,-1.536018,-0.963269,0.246071,0.107526,0.223141,0.413948,-0.224866,-50.779945,-2.927777,6.087679,,,,,,,
1500293025.552638,-1.681912,-0.233062,-0.458911,-0.099461,0.006631,-1.446457,-0.966964,0.230957,0.107890,0.220549,0.439392,-0.221476,-50.717049,-3.799677,6.130083,,,,,,,
1500293025.563216,-1.681335,-0.218616,-0.458118,-0.072275,0.047848,-1.338634,-0.970241,0.216879,0.107688,0.220668,0.468958,-0.203849,-50.573067,-5.384188,6.132720,,,,,,,
1500293025.573792,-1.680249,-0.205296,-0.457235,-0.050909,0.097559,-1.234441,-0.973142,0.203857,0.106940,0.223570,0.481980,-0.203101,-50.573067,-5.384188,6.132720,,,,,,,
1500293025.584369,-1.678725,-0.193105,-0.456292,-0.041416,0.135174,-1.126614,-0.975703,0.191907,0.105717,0.237269,0.486484,-0.183613,-50.497299,-6.090269,6.096398,,,,,,,
1500293025.605523,-1.674627,-0.171626,-0.454581,-0.018413,0.209584,-0.952573,-0.980002,0.170785,0.102121,0.276984,0.475715,-0.159555,-50.349438,-7.329081,5.954269,,,,,,,
1500293025.594947,-1.676836,-0.181903,-0.455433,-0.032857,0.165765,-1.042065,-0.977977,0.180901,0.104094,0.274959,0.465598,-0.161528,-50.349438,-7.329081,5.954269,,,,,,,
1500293025.616100,-1.671779,-0.162249,-0.453744,-0.014387,0.278854,-0.871531,-0.981839,0.161538,0.099487,0.278821,0.484962,-0.156921,-50.278282,-7.873413,5.859903,,,,,,,
1500293025.626678,-1.668229,-0.153640,-0.452934,0.002652,0.337310,-0.797888,-0.983534,0.153036,0.096133,0.324476,0.459818,-0.120257,-50.151901,-8.823056,5.583434,,,,,,,
1500293025.637254,-1.664118,-0.146128,-0.452098,0.009783,0.389372,-0.685105,-0.985037,0.145608,0.092193,0.325980,0.467246,-0.116317,-50.151901,-8.823056,5.583434,,,,,,,
1500293025.647831,-1.659632,-0.139969,-0.451468,0.001274,0.420730,-0.551590,-0.986316,0.139512,0.087851,0.328524,0.502333,-0.067374,-50.098682,-9.231360,5.398024,,,,,,,
1500293025.658409,-1.655009,-0.135273,-0.451522,-0.061681,0.444748,-0.400918,-0.987353,0.134861,0.083344,0.326327,0.559918,0.009307,-50.025936,-9.850531,4.960590,,,,,,,
1500293025.668985,-1.649879,-0.132357,-0.452593,-0.144838,0.521632,-0.219416,-0.988156,0.131971,0.078309,0.327130,0.562808,0.014342,-50.025936,-9.850531,4.960590,,,,,,,
1500293025.679562,-1.643814,-0.131415,-0.455024,-0.263423,0.639440,-0.019354,-0.988736,0.131037,0.072324,0.390683,0.531301,0.083713,-50.011864,-10.043720,4.708690,,,,,,,
1500293025.700716,-1.626310,-0.136177,-0.465505,-0.614890,1.070264,0.439203,-0.989216,0.135756,0.054971,0.493870,0.476930,0.149268,-50.053879,-10.138489,4.006880,,,,,,,
1500293025.690140,-1.636108,-0.132610,-0.459205,-0.429036,0.829638,0.193290,-0.989107,0.132222,0.064693,0.493761,0.480464,0.139546,-50.053879,-10.138489,4.006880,,,,,,,
1500293025.711293,-1.614086,-0.142710,-0.473835,-0.792934,1.322564,0.726759,-0.988907,0.142226,0.042836,0.493561,0.470460,0.161403,-50.115566,-10.025300,3.486836,,,,,,,
1500293025.721871,-1.599783,-0.152203,-0.483603,-0.901402,1.536279,0.999401,-0.988024,0.151616,0.028647,0.596667,0.338176,0.151101,-50.322609,-9.374849,1.995477,,,,,,,
1500293025.732447,-1.584148,-0.164686,-0.493931,-0.940596,1.655785,1.265465,-0.986382,0.163943,0.013170,0.595025,0.325849,0.166578,-50.322609,-9.374849,1.995477,,,,,,,
1500293025.743024,-1.568449,-0.179865,-0.503860,-0.904482,1.633029,1.497828,-0.983865,0.178897,-0.002309,0.605600,0.216702,0.108816,-50.450806,-8.820882,1.068934,,,,,,,
1500293025.753602,-1.554066,-0.197107,-0.512908,-0.843266,1.470867,1.656170,-0.980500,0.195833,-0.016406,0.491944,0.194395,0.112658,-50.699223,-7.289375,-0.829835,,,,,,,
1500293025.764178,-1.542405,-0.215412,-0.520987,-0.769685,1.181536,1.724648,-0.976495,0.213750,-0.027732,0.487939,0.176479,0.123984,-50.699223,-7.289375,-0.829835,,,,,,,
1500293025.774755,-1.534500,-0.234338,-0.528219,-0.704473,0.804231,1.775642,-0.972028,0.232199,-0.035296,0.368298,0.207575,0.114215,-50.802227,-6.377275,-1.642827,,,,,,,
1500293025.785333,-1.530495,-0.253606,-0.534367,-0.601353,0.428238,1.810695,-0.967228,0.250896,-0.039002,0.363499,0.188877,0.117920,-50.962803,-4.447541,-2.691988,,,,,,,
1500293025.795909,-1.529881,-0.273569,-0.538957,-0.463292,0.089186,1.893586,-0.962007,0.270169,-0.039383,0.358278,0.169604,0.118302,-50.962803,-4.447541,-2.691988,,,,,,,
1500293025.806486,-1.532000,-0.294838,-0.541829,-0.297428,-0.191297,2.036649,-0.956129,0.290585,-0.037113,0.272535,0.222721,0.099842,-51.029007,-3.445179,-2.899294,,,,,,,
1500293025.817064,-1.536243,-0.317652,-0.542741,-0.118564,-0.430833,2.189658,-0.949404,0.312337,-0.032818,0.164736,0.303935,0.081295,-51.135822,-1.261308,-2.787762,,,,,,,
1500293025.827640,-1.541972,-0.341903,-0.541697,0.064215,-0.608667,2.329456,-0.941727,0.335281,-0.027152,0.157059,0.280991,0.075629,-51.135822,-1.261308,-2.787762,,,,,,,
1500293025.838217,-1.548029,-0.367565,-0.538647,0.254359,-0.694671,2.469744,-0.932963,0.359344,-0.021245,0.040904,0.316406,0.097874,-51.164936,-0.055648,-2.526051,,,,,,,
1500293025.848795,-1.553801,-0.394635,-0.534129,0.368427,-0.697177,2.593205,-0.923004,0.384471,-0.015688,-0.029404,0.281193,0.182436,-51.130745,2.569189,-1.811217,,,,,,,
1500293025.859371,-1.558707,-0.422735,-0.529025,0.406477,-0.636505,2.685190,-0.911904,0.410256,-0.011025,-0.040504,0.255408,0.177773,-51.130745,2.569189,-1.811217,,,,,,,
1500293025.869948,-1.562627,-0.451485,-0.524438,0.343859,-0.519764,2.734681,-0.899770,0.436303,-0.007351,-0.045680,0.174034,0.265301,-51.051994,3.976788,-1.453926,,,,,,,
1500293025.880526,-1.565679,-0.480850,-0.521584,0.176357,-0.369169,2.792985,-0.886591,0.462533,-0.004537,-0.058859,0.147804,0.262487,-50.752312,6.900944,-0.902435,,,,,,,
1500293025.891102,-1.568181,-0.510892,-0.521264,-0.040705,-0.206520,2.859956,-0.872306,0.488956,-0.002281,-0.073144,0.121380,0.260231,-50.752312,6.900944,-0.902435,,,,,,,
1500293025.901679,-1.570349,-0.541622,-0.523926,-0.281222,-0.030504,2.920887,-0.856873,0.515527,-0.000383,-0.045470,0.033332,0.286745,-50.527985,8.403452,-0.734557,,,,,,,
1500293025.912257,-1.572900,-0.573097,-0.529561,-0.500998,0.057216,2.994892,-0.840224,0.542237,0.001768,-0.039796,-0.032090,0.218295,-49.917229,11.495644,-0.595646,,,,,,,
1500293025.922833,-1.576493,-0.605324,-0.537584,-0.653760,0.085724,3.064914,-0.822305,0.569028,0.004684,-0.057715,-0.058881,0.215378,-49.917229,11.495644,-0.595646,,,,,,,
1500293025.933410,-1.581393,-0.637948,-0.547132,-0.725045,0.048033,3.101541,-0.803274,0.595548,0.008512,-0.087457,-0.084379,0.102175,-49.524956,13.084303,-0.560698,,,,,,,
1500293025.943988,-1.587829,-0.670630,-0.557617,-0.741766,-0.024361,3.097588,-0.783317,0.621480,0.013343,-0.147470,-0.090230,0.009347,-48.564640,16.295725,-0.399690,,,,,,,
1500293025.954564,-1.595557,-0.703105,-0.568343,-0.711272,-0.110002,3.083743,-0.762604,0.646590,0.018887,-0.168182,-0.115340,0.003803,-48.564640,16.295725,-0.399690,,,,,,,
1500293025.965141,-1.604610,-0.735123,-0.579181,-0.667355,-0.202512,3.028253,-0.741324,0.670678,0.025077,-0.189462,-0.139428,-0.002387,-48.005753,17.877991,-0.243945,,,,,,,
1500293025.986295,-1.624285,-0.795503,-0.599619,-0.500962,-0.287339,2.781780,-0.698925,0.714215,0.037420,-0.309055,-0.158323,-0.051413,-46.757679,20.926292,0.209977,,,,,,,
1500293025.975719,-1.614408,-0.766023,-0.589789,-0.600241,-0.254676,2.916617,-0.719988,0.693275,0.031420,-0.287992,-0.137382,-0.045412,-46.757679,20.926292,0.209977,,,,,,,
1500293025.996872,-1.633951,-0.823348,-0.608542,-0.404759,-0.302772,2.612754,-0.678414,0.733426,0.042902,-0.432227,-0.159528,-0.084040,-46.096943,22.340210,0.470580,,,,,,,
1500293026.007450,-1.642961,-0.849107,-0.616653,-0.332771,-0.271993,2.412130,-0.658934,0.750691,0.047634,-0.541581,-0.180500,-0.071819,-44.765450,24.886703,0.970072,,,,,,,
1500293026.018026,-1.650876,-0.872890,-0.624365,-0.293776,-0.162907,2.235111,-0.640556,0.766189,0.051405,-0.559960,-0.195999,-0.075591,-44.765450,24.886703,0.970072,,,,,,,
1500293026.028603,-1.657100,-0.894513,-0.632097,-0.298873,0.025051,2.022977,-0.623569,0.779904,0.053950,-0.615353,-0.223111,-0.019191,-44.125729,25.995693,1.174220,,,,,,,
1500293026.039181,-1.661676,-0.914303,-0.640633,-0.342182,0.265632,1.869835,-0.607824,0.792138,0.055391,-0.570170,-0.260399,0.001051,-42.937500,27.906086,1.362390,,,,,,,
1500293026.049757,-1.665010,-0.932915,-0.650535,-0.414671,0.483858,1.786378,-0.592853,0.803359,0.056021,-0.585140,-0.271621,0.000421,-42.937500,27.906086,1.362390,,,,,,,
1500293026.060334,-1.667579,-0.951184,-0.661760,-0.470604,0.650591,1.783452,-0.578002,0.814104,0.056116,-0.599992,-0.282365,0.000326,-42.389107,28.733967,1.325657,,,,,,,
1500293026.081488,-1.672932,-0.987564,-0.686721,-0.491281,0.717269,1.758052,-0.547855,0.834687,0.056151,-0.582776,-0.313172,-0.008849,-41.291180,30.300432,1.075676,,,,,,,
1500293026.070912,-1.670084,-0.969513,-0.674031,-0.495178,0.727819,1.792361,-0.562915,0.824610,0.056075,-0.567715,-0.303095,-0.008772,-41.291180,30.300432,1.075676,,,,,,,
1500293026.092065,-1.676747,-1.005308,-0.699398,-0.463030,0.612461,1.728223,-0.532823,0.844327,0.056665,-0.630064,-0.326780,-0.043939,-40.720394,31.068283,0.919667,,,,,,,
1500293026.102643,-1.681520,-1.022537,-0.711167,-0.392212,0.449918,1.668745,-0.518011,0.853433,0.057591,-0.695566,-0.351678,-0.088872,-39.566036,32.531284,0.692194,,,,,,,
1500293026.113219,-1.687131,-1.039210,-0.721542,-0.297860,0.264441,1.605477,-0.503475,0.862004,0.058837,-0.710102,-0.360249,-0.090118,-39.566036,32.531284,0.692194,,,,,,,
1500293026.123796,-1.693394,-1.054981,-0.730242,-0.212543,0.078088,1.507953,-0.489542,0.869891,0.060319,-0.796438,-0.371584,-0.115297,-38.993458,33.216232,0.653037,,,,,,,
1500293026.134374,-1.700088,-1.069849,-0.737346,-0.124893,-0.087820,1.419077,-0.476248,0.877128,0.061920,-0.809732,-0.378822,-0.116898,-37.900589,34.456726,0.717001,,,,,,,
1500293026.144950,-1.706964,-1.084003,-0.742873,-0.050117,-0.219927,1.332800,-0.463464,0.883837,0.063502,-0.822516,-0.385531,-0.118479,-37.900589,34.456726,0.717001,,,,,,,
1500293026.155527,-1.713489,-1.096894,-0.746575,0.025398,-0.328564,1.190331,-0.451724,0.889794,0.064899,-0.908460,-0.398339,-0.132877,-37.384388,35.014191,0.805186,,,,,,,
1500293026.176681,-1.724562,-1.117178,-0.748442,0.137605,-0.518296,0.806432,-0.433050,0.898867,0.067118,-1.087702,-0.289660,-0.123164,-36.459919,35.969986,1.034092,,,,,,,
1500293026.166105,-1.719275,-1.108037,-0.748372,0.093219,-0.421092,1.005109,-0.441507,0.894824,0.066041,-1.079245,-0.285617,-0.122086,-36.459919,35.969986,1.034092,,,,,,,
1500293026.187258,-1.729135,-1.124801,-0.746495,0.217790,-0.619750,0.670107,-0.425960,0.902182,0.068015,-1.186833,-0.226858,-0.139366,-36.089878,36.337288,1.164781,,,,,,,
1500293026.197836,-1.731233,-1.131567,-0.741430,0.333255,-0.629814,0.569608,-0.419781,0.905080,0.067932,-1.177967,-0.313374,-0.162689,-35.524887,36.879536,1.454963,,,,,,,
1500293026.208412,-1.729831,-1.137103,-0.732819,0.449493,-0.591095,0.417917,-0.414922,0.907420,0.066549,-1.182825,-0.315714,-0.161306,-35.524887,36.879536,1.454963,,,,,,,
1500293026.218990,-1.724835,-1.140489,-0.721170,0.518587,-0.504412,0.179593,-0.412211,0.908838,0.064003,-1.168539,-0.398874,-0.112648,-35.304604,37.086777,1.546190,,,,,,,
1500293026.229567,-1.716625,-1.141035,-0.707550,0.537750,-0.350844,-0.102455,-0.412231,0.909065,0.060545,-1.168518,-0.399101,-0.109190,-35.100464,37.280277,1.540528,,,,,,,
1500293026.240143,-1.705109,-1.138441,-0.692545,0.562006,-0.147615,-0.401435,-0.415237,0.907981,0.056109,-1.165512,-0.398017,-0.104754,-35.100464,37.280277,1.540528,,,,,,,
1500293026.250721,-1.689701,-1.132414,-0.675640,0.610242,0.049893,-0.737172,-0.421478,0.905439,0.050353,-1.093384,-0.480635,-0.066680,-35.165131,37.223320,1.439649,,,,,,,
1500293026.261298,-1.670358,-1.123137,-0.655955,0.728421,0.173247,-1.029235,-0.430714,0.901463,0.043025,-0.908917,-0.560734,-0.091426,-35.671593,36.753723,0.967395,,,,,,,
1500293026.271874,-1.647585,-1.111062,-0.633076,0.881207,0.217694,-1.281279,-0.442403,0.896170,0.034039,-0.897227,-0.555442,-0.082440,-35.671593,36.753723,0.967395,,,,,,,
1500293026.282452,-1.622514,-1.096294,-0.607544,1.038355,0.204062,-1.521331,-0.456285,0.889520,0.023619,-0.695418,-0.581964,-0.046797,-36.096291,36.344639,0.599916,,,,,,,
1500293026.293029,-1.597028,-1.079038,-0.579993,1.178095,0.057283,-1.725205,-0.472014,0.881504,0.012385,-0.563401,-0.515568,0.003088,-37.201599,35.216198,-0.308248,,,,,,,
1500293026.303605,-1.572993,-1.059757,-0.551540,1.294614,-0.140698,-1.874202,-0.489083,0.872237,0.001074,-0.546333,-0.506300,0.014398,-37.201599,35.216198,-0.308248,,,,,,,
1500293026.314183,-1.551846,-1.039046,-0.523163,1.369036,-0.394690,-1.968323,-0.506952,0.861921,-0.009608,-0.528464,-0.495985,0.025080,-37.852890,34.508221,-0.758868,,,,,,,
1500293026.324760,-1.534821,-1.017498,-0.495573,1.410780,-0.703509,-2.006349,-0.525157,0.850796,-0.018901,-0.431295,-0.437954,0.056514,-39.244667,32.893768,-1.446043,,,,,,,
1500293026.335336,-1.522786,-0.995208,-0.469597,1.396142,-1.013306,-2.061453,-0.543701,0.838872,-0.026124,-0.412750,-0.426030,0.063736,-39.244667,32.893768,-1.446043,,,,,,,
1500293026.345914,-1.516044,-0.972290,-0.445813,1.339013,-1.307447,-2.106659,-0.562564,0.826178,-0.030833,-0.416088,-0.312979,0.086161,-39.951740,32.023849,-1.601925,,,,,,,
1500293026.356491,-1.513993,-0.949120,-0.424256,1.272431,-1.529359,-2.127085,-0.581459,0.812903,-0.033064,-0.442055,-0.226249,0.053465,-41.370316,30.177303,-1.436012,,,,,,,
1500293026.367067,-1.515447,-0.925962,-0.404427,1.222309,-1.680290,-2.121538,-0.600146,0.799199,-0.033252,-0.423368,-0.212545,0.053653,-41.370316,30.177303,-1.436012,,,,,,,
1500293026.377645,-1.518915,-0.902869,-0.385535,1.196160,-1.756284,-2.126720,-0.618526,0.785107,-0.032119,-0.455402,-0.172742,-0.000947,-42.059822,29.221827,-1.136231,,,,,,,
,,,,,,,,,,,,,,,,46.907976,-94.376823,436.123718,0.530000,34.804688,1500293025.999921,
1500293026.388222,-1.523312,-0.879596,-0.367633,1.163569,-1.724608,-2.152253,-0.636744,0.770482,-0.030258,-0.472662,-0.155140,-0.014847,-43.356880,27.282389,-0.295278,,,,,,,
1500293026.398798,-1.527845,-0.855764,-0.350771,1.121223,-1.610365,-2.225156,-0.655037,0.755072,-0.028152,-0.454369,-0.139731,-0.016953,-43.356880,27.282389,-0.295278,,,,,,,
1500293026.409376,-1.531557,-0.831002,-0.335165,1.056001,-1.393194,-2.325757,-0.673617,0.738607,-0.026446,-0.435789,-0.123266,-0.018659,-43.972183,26.280315,0.164206,,,,,,,
1500293026.419953,-1.534379,-0.805009,-0.321355,0.962859,-1.168469,-2.455664,-0.692645,0.720837,-0.025235,-0.411054,-0.114392,0.018460,-45.182823,24.121201,0.956527,,,,,,,
1500293026.430529,-1.536817,-0.777901,-0.309986,0.804611,-0.937870,-2.559784,-0.711977,0.701786,-0.024202,-0.391722,-0.095341,0.017427,-45.182823,24.121201,0.956527,,,,,,,
1500293026.441107,-1.538713,-0.749903,-0.300988,0.667309,-0.711125,-2.641916,-0.731379,0.681568,-0.023473,-0.314444,-0.060123,0.040349,-45.787708,22.937542,1.260729,,,,,,,
1500293026.462260,-1.540855,-0.692957,-0.289033,0.416896,-0.357792,-2.687924,-0.769015,0.638815,-0.023032,-0.207654,0.007867,0.041251,-46.963497,20.391140,1.692881,,,,,,,
1500293026.451684,-1.539984,-0.721510,-0.294073,0.534079,-0.508982,-2.676432,-0.750453,0.660519,-0.023131,-0.226216,-0.013836,0.041350,-46.963497,20.391140,1.692881,,,,,,,
1500293026.472838,-1.541596,-0.664599,-0.285377,0.328615,-0.264883,-2.669096,-0.786829,0.616744,-0.022982,-0.122488,0.045915,0.024248,-47.514309,19.060604,1.821619,,,,,,,
1500293026.493991,-1.543430,-0.609077,-0.280825,0.201840,-0.213488,-2.596559,-0.819870,0.572110,-0.022443,-0.089447,0.090548,0.023709,-48.502678,16.364471,1.982219,,,,,,,
1500293026.483415,-1.542305,-0.636676,-0.282721,0.258752,-0.215695,-2.625994,-0.803750,0.594526,-0.022906,-0.105567,0.068133,0.024173,-48.502678,16.364471,1.982219,,,,,,,
1500293026.504569,-1.545324,-0.581854,-0.279513,0.167074,-0.260871,-2.561234,-0.835174,0.549574,-0.021279,-0.042222,0.130800,-0.002663,-48.932877,15.020114,2.050498,,,,,,,
1500293026.515146,-1.548065,-0.555119,-0.278538,0.129739,-0.331297,-2.514987,-0.849618,0.527044,-0.019316,-0.005057,0.161844,-0.028688,-49.665112,12.349173,2.260391,,,,,,,
1500293026.525723,-1.551505,-0.528961,-0.277550,0.133545,-0.386213,-2.454036,-0.863171,0.504636,-0.016654,0.008496,0.184252,-0.031350,-49.665112,12.349173,2.260391,,,,,,,
1500293026.536300,-1.555598,-0.503608,-0.276612,0.114737,-0.442481,-2.374711,-0.875746,0.482589,-0.013311,0.038954,0.214371,-0.050639,-49.965881,11.034356,2.426573,,,,,,,
1500293026.546877,-1.560096,-0.479141,-0.275768,0.099531,-0.468602,-2.291595,-0.887340,0.461017,-0.009495,0.064495,0.229046,-0.055080,-50.436832,8.497649,2.854927,,,,,,,
1500293026.557453,-1.564604,-0.455599,-0.275100,0.066777,-0.450048,-2.205831,-0.897981,0.440000,-0.005561,0.075135,0.250063,-0.059014,-50.436832,8.497649,2.854927,,,,,,,
1500293026.568031,-1.568892,-0.432969,-0.274792,0.024728,-0.402481,-2.122383,-0.907722,0.419568,-0.001728,0.084572,0.262485,-0.061763,-50.611595,7.288404,3.095195,,,,,,,
1500293026.578609,-1.572823,-0.411088,-0.274891,-0.023059,-0.354780,-2.052390,-0.916685,0.399606,0.001858,0.093534,0.282446,-0.065350,-50.860687,4.991027,3.537622,,,,,,,
1500293026.589185,-1.576205,-0.389731,-0.275672,-0.093934,-0.263318,-2.010335,-0.924998,0.379940,0.005003,0.101847,0.302113,-0.068495,-50.860687,4.991027,3.537622,,,,,,,
1500293026.599762,-1.578731,-0.368781,-0.277020,-0.143561,-0.170650,-1.970746,-0.932738,0.360479,0.007401,0.106886,0.325434,-0.059128,-50.943592,3.891186,3.720757,,,,,,,
1500293026.620915,-1.581974,-0.328723,-0.280906,-0.208281,-0.053448,-1.841713,-0.946396,0.322835,0.010579,0.136917,0.376964,-0.067174,-51.045795,1.746753,3.938290,,,,,,,
1500293026.610339,-1.580590,-0.348398,-0.278838,-0.187610,-0.098712,-1.910445,-0.939876,0.341393,0.009205,0.130397,0.358406,-0.065800,-51.045795,1.746753,3.938290,,,,,,,
1500293026.631493,-1.582997,-0.309931,-0.283219,-0.232808,-0.018068,-1.748546,-0.952284,0.304993,0.011619,0.163801,0.419723,-0.070335,-51.066742,0.716619,3.988639,,,,,,,
1500293026.642071,-1.583723,-0.292166,-0.285669,-0.246883,0.001521,-1.646887,-0.957542,0.288027,0.012379,0.196052,0.433699,-0.059742,-51.054970,-1.219044,4.017267,,,,,,,
1500293026.652646,-1.584438,-0.275497,-0.288253,-0.260989,0.000618,-1.548985,-0.962201,0.272025,0.013126,0.200711,0.449700,-0.060490,-51.054970,-1.219044,4.017267,,,,,,,
1500293026.663224,-1.585213,-0.259798,-0.291212,-0.303285,-0.000170,-1.459619,-0.966341,0.256886,0.013932,0.204852,0.464840,-0.061296,-51.026520,-2.105073,4.012194,,,,,,,
1500293026.673801,-1.585862,-0.245023,-0.294674,-0.349042,0.031612,-1.366443,-0.970022,0.242579,0.014615,0.213888,0.469946,-0.049237,-50.935349,-3.727994,3.990892,,,,,,,
1500293026.684377,-1.586038,-0.231367,-0.298730,-0.406604,0.089881,-1.263358,-0.973241,0.229308,0.014835,0.217107,0.483216,-0.049457,-50.935349,-3.727994,3.990892,,,,,,,
1500293026.694955,-1.585777,-0.218757,-0.303568,-0.490128,0.139730,-1.160281,-0.976058,0.217016,0.014623,0.218231,0.510920,-0.027516,-50.879311,-4.463117,3.951075,,,,,,,
1500293026.705533,-1.585145,-0.207213,-0.309842,-0.626706,0.198060,-1.053443,-0.978507,0.205733,0.014041,0.180259,0.607179,0.008512,-50.761330,-5.777536,3.760609,,,,,,,
1500293026.716109,-1.583830,-0.196971,-0.317771,-0.785744,0.309338,-0.924338,-0.980581,0.195700,0.012782,0.182332,0.617212,0.009771,-50.761330,-5.777536,3.760609,,,,,,,
1500293026.726686,-1.580997,-0.188502,-0.327342,-0.931035,0.487702,-0.739907,-0.982235,0.187388,0.010020,0.232693,0.646688,0.018880,-50.704254,-6.352302,3.600181,,,,,,,
1500293026.737264,-1.576102,-0.182265,-0.338052,-1.016397,0.705575,-0.527230,-0.983422,0.181257,0.005218,0.312386,0.604936,-0.026412,-50.622330,-7.256482,2.992939,,,,,,,
1500293026.747840,-1.568980,-0.178163,-0.349139,-1.030733,0.916383,-0.342798,-0.984169,0.177222,-0.001788,0.313133,0.608971,-0.019407,-50.622330,-7.256482,2.992939,,,,,,,
1500293026.758417,-1.559779,-0.176279,-0.359846,-0.978371,1.086988,-0.129234,-0.984443,0.175367,-0.010846,0.313408,0.610827,-0.010348,-50.606903,-7.542274,2.508050,,,,,,,
1500293026.768995,-1.549051,-0.176865,-0.369358,-0.848573,1.193400,0.095000,-0.984167,0.175945,-0.021404,0.439505,0.489491,-0.035084,-50.618652,-7.775994,1.233099,,,,,,,
1500293026.779571,-1.537658,-0.179695,-0.376879,-0.654028,1.198536,0.294276,-0.983358,0.178730,-0.032599,0.438695,0.486706,-0.023889,-50.618652,-7.775994,1.233099,,,,,,,
1500293026.790148,-1.526562,-0.184481,-0.381819,-0.414850,1.104767,0.475968,-0.982070,0.183436,-0.043470,0.507049,0.327931,-0.023242,-50.641983,-7.703859,0.524255,,,,,,,
1500293026.800726,-1.516788,-0.190869,-0.383912,-0.162772,0.906185,0.630293,-0.980408,0.189712,-0.053001,0.503479,0.219788,0.039604,-50.707172,-7.242347,-0.752043,,,,,,,
1500293026.811301,-1.509312,-0.198748,-0.383254,0.077220,0.617080,0.781811,-0.978462,0.197442,-0.060236,0.501534,0.212058,0.046839,-50.707172,-7.242347,-0.752043,,,,,,,
1500293026.821879,-1.504826,-0.207578,-0.380163,0.277570,0.266971,0.876830,-0.976404,0.206090,-0.064507,0.410059,0.207423,0.146035,-50.748611,-6.881057,-1.210017,,,,,,,
1500293026.832457,-1.504212,-0.217293,-0.375495,0.396434,-0.133732,0.969275,-0.974321,0.215587,-0.064970,0.407976,0.197926,0.146498,-50.853970,-5.973030,-1.559289,,,,,,,
1500293026.843033,-1.507264,-0.227903,-0.369894,0.456634,-0.487191,1.053411,-0.972177,0.225935,-0.061847,0.405832,0.187578,0.143375,-50.853970,-5.973030,-1.559289,,,,,,,
1500293026.853610,-1.512854,-0.239220,-0.363981,0.478632,-0.703896,1.117466,-0.969893,0.236945,-0.056261,0.325636,0.186975,0.244524,-50.917500,-5.445425,-1.410817,,,,,,,
1500293026.864188,-1.519769,-0.250953,-0.358320,0.446226,-0.805457,1.135435,-0.967415,0.248328,-0.049407,0.225365,0.226694,0.318465,-51.044449,-4.271842,-0.670816,,,,,,,
1500293026.874764,-1.527420,-0.262890,-0.353364,0.378722,-0.850180,1.148779,-0.964735,0.259872,-0.041873,0.222685,0.215149,0.310931,-51.044449,-4.271842,-0.670816,,,,,,,
1500293026.885341,-1.535095,-0.274929,-0.349178,0.321004,-0.819981,1.155081,-0.961831,0.271478,-0.034353,0.142984,0.286536,0.313421,-51.096153,-3.656992,-0.209725,,,,,,,
1500293026.895919,-1.542201,-0.287257,-0.345388,0.307901,-0.751449,1.188416,-0.958633,0.283322,-0.027420,0.165145,0.301181,0.266144,-51.165859,-2.406675,0.705360,,,,,,,
1500293026.906495,-1.548228,-0.300285,-0.341628,0.310974,-0.643471,1.262276,-0.955009,0.295792,-0.021556,0.161521,0.288711,0.260280,-51.165859,-2.406675,0.705360,,,,,,,
1500293026.917072,-1.552492,-0.314600,-0.337880,0.308943,-0.462358,1.392733,-0.950761,0.309436,-0.017405,0.227128,0.251691,0.279246,-51.185364,-1.752499,1.105516,,,,,,,
1500293026.927650,-1.554355,-0.330276,-0.334562,0.252961,-0.206318,1.523553,-0.945825,0.324304,-0.015552,0.222192,0.236823,0.277393,-51.199783,-0.272476,1.656058,,,,,,,
1500293026.938226,-1.553478,-0.347401,-0.332649,0.100525,0.096953,1.652219,-0.940120,0.340455,-0.016283,0.216487,0.220671,0.278124,-51.199783,-0.272476,1.656058,,,,,,,
1500293026.948803,-1.550236,-0.366073,-0.332942,-0.115864,0.391629,1.804165,-0.933543,0.357951,-0.019196,0.282786,0.149358,0.345765,-51.194988,0.574846,1.725486,,,,,,,
1500293026.959381,-1.545142,-0.386589,-0.335753,-0.352730,0.635410,1.977947,-0.925896,0.377032,-0.023758,0.330223,0.100904,0.348069,-51.148029,2.486478,1.389632,,,,,,,
1500293026.969957,-1.539194,-0.409032,-0.341106,-0.585124,0.792304,2.145248,-0.917048,0.397721,-0.028991,0.321376,0.080215,0.353301,-51.148029,2.486478,1.389632,,,,,,,
1500293026.980534,-1.533264,-0.433130,-0.348479,-0.751593,0.851532,2.288829,-0.907017,0.419713,-0.034058,0.305058,0.041956,0.280274,-51.091862,3.575594,1.035118,,,,,,,
1500293026.991112,-1.527974,-0.458532,-0.357121,-0.856544,0.847058,2.392928,-0.895881,0.442632,-0.038388,0.244148,0.029444,0.197460,-50.874928,5.994479,0.206207,,,,,,,
1500293027.001688,-1.524059,-0.484761,-0.366626,-0.922456,0.755967,2.457473,-0.883820,0.465997,-0.041337,0.232087,0.006079,0.200410,-50.874928,5.994479,0.206207,,,,,,,
1500293027.012265,-1.521785,-0.511441,-0.376229,-0.912699,0.610794,2.485008,-0.870993,0.489434,-0.042723,0.219260,-0.017358,0.201796,-50.705807,7.288689,-0.174716,,,,,,,
1500293027.022843,-1.521383,-0.538190,-0.385783,-0.903874,0.451374,2.486788,-0.857590,0.512583,-0.042411,0.151535,-0.015619,0.142036,-50.248184,9.943211,-0.697874,,,,,,,
1500293027.033419,-1.523033,-0.564818,-0.395412,-0.896100,0.280018,2.473837,-0.843723,0.535262,-0.040329,0.137668,-0.038299,0.139954,-50.248184,9.943211,-0.697874,,,,,,,
1500293027.043996,-1.526655,-0.591134,-0.405151,-0.884536,0.119698,2.442572,-0.829500,0.557303,-0.036639,0.067309,-0.035285,0.099032,-49.966358,11.266663,-0.812397,,,,,,,
1500293027.054574,-1.532041,-0.617248,-0.415456,-0.911911,0.026813,2.436099,-0.814862,0.578793,-0.031596,0.014874,-0.009488,0.097636,-49.312019,13.856294,-0.750137,,,,,,,
1500293027.065150,-1.538829,-0.643296,-0.426878,-0.982699,-0.006865,2.431138,-0.799714,0.599836,-0.025573,-0.000273,-0.030530,0.091613,-49.312019,13.856294,-0.750137,,,,,,,
1500293027.075727,-1.546470,-0.669779,-0.440022,-1.077448,0.056693,2.490232,-0.783727,0.620813,-0.019069,-0.062480,-0.015680,0.101268,-48.939014,15.127122,-0.614638,,,,,,,
1500293027.086305,-1.554689,-0.696934,-0.455232,-1.202860,0.155189,2.561738,-0.766715,0.641869,-0.012350,-0.151544,-0.012048,0.069556,-48.078926,17.679543,-0.291835,,,,,,,
1500293027.096881,-1.563519,-0.724769,-0.473119,-1.346908,0.311679,2.632279,-0.748633,0.662962,-0.005448,-0.169626,-0.033140,0.062653,-48.078926,17.679543,-0.291835,,,,,,,
1500293027.107458,-1.572798,-0.752810,-0.493855,-1.491498,0.486741,2.653951,-0.729769,0.683692,0.001461,-0.188490,-0.053870,0.055744,-47.577911,18.988289,-0.147678,,,,,,,
1500293027.118036,-1.582966,-0.780901,-0.517569,-1.627873,0.624442,2.666896,-0.710227,0.703919,0.008644,-0.294854,-0.038102,0.022576,-46.439564,21.624056,0.041016,,,,,,,
1500293027.128612,-1.594623,-0.808818,-0.544267,-1.750210,0.721106,2.675985,-0.690158,0.723472,0.016447,-0.314923,-0.057655,0.014772,-46.439564,21.624056,0.041016,,,,,,,
1500293027.139189,-1.608105,-0.836635,-0.573348,-1.795041,0.745206,2.687143,-0.669498,0.742393,0.024989,-0.431362,-0.035804,-0.047603,-45.811932,22.923540,0.114092,,,,,,,
1500293027.149767,-1.623194,-0.864456,-0.603801,-1.773118,0.732760,2.723778,-0.648163,0.760742,0.033993,-0.531936,-0.051361,-0.114605,-44.439018,25.481453,0.321924,,,,,,,
1500293027.160343,-1.639648,-0.892588,-0.634831,-1.682090,0.684961,2.787118,-0.625913,0.778698,0.043164,-0.554187,-0.069317,-0.123776,-44.439018,25.481453,0.321924,,,,,,,
1500293027.170921,-1.657646,-0.921168,-0.665722,-1.551164,0.568346,2.844014,-0.602611,0.796308,0.052468,-0.657384,-0.099348,-0.197762,-43.686142,26.749519,0.467644,,,,,,,
1500293027.181498,-1.677457,-0.949861,-0.696118,-1.394123,0.396466,2.867617,-0.578490,0.813335,0.061937,-0.681505,-0.116374,-0.207231,-42.016731,29.292946,0.867266,,,,,,,
1500293027.192074,-1.698906,-0.978244,-0.725404,-1.207096,0.198479,2.838465,-0.553904,0.829518,0.071351,-0.706091,-0.132557,-0.216645,-42.016731,29.292946,0.867266,,,,,,,
1500293027.202652,-1.721278,-1.005792,-0.752972,-0.996973,0.025109,2.756774,-0.529369,0.844586,0.080267,-0.854390,-0.196835,-0.265021,-41.114052,30.537947,1.141439,,,,,,,
1500293027.213229,-1.744091,-1.032217,-0.778844,-0.815777,-0.104446,2.642255,-0.505234,0.858438,0.088442,-1.006088,-0.246591,-0.289049,-39.255394,32.864285,1.785345,,,,,,,
1500293027.223805,-1.766764,-1.056938,-0.802751,-0.647869,-0.217644,2.459293,-0.482132,0.870855,0.095711,-1.029190,-0.259008,-0.296318,-39.255394,32.864285,1.785345,,,,,,,
1500293027.234383,-1.789680,-1.079495,-0.825118,-0.526748,-0.344942,2.240835,-0.460518,0.881720,0.102441,-1.281990,-0.123571,-0.249643,-38.335358,33.914223,2.111867,,,,,,,
1500293027.255536,-1.830621,-1.119892,-0.861573,-0.140609,-0.395913,1.961239,-0.421152,0.900054,0.111957,-1.439932,-0.148879,-0.289706,-36.626686,35.708378,2.762672,,,,,,,
1500293027.244960,-1.811723,-1.100137,-0.845248,-0.371670,-0.408653,2.061761,-0.440376,0.891270,0.108200,-1.420708,-0.140095,-0.285950,-36.626686,35.708378,2.762672,,,,,,,
1500293027.266114,-1.843806,-1.139010,-0.872370,0.124332,-0.289801,1.814567,-0.402995,0.908219,0.112839,-1.442190,-0.371843,-0.277100,-35.839195,36.476536,3.041259,,,,,,,
1500293027.276691,-1.849989,-1.156339,-0.876973,0.311790,-0.157112,1.548168,-0.387100,0.915335,0.110974,-1.458084,-0.378958,-0.275235,-34.367508,37.850361,3.234056,,,,,,,
1500293027.287267,-1.850395,-1.170143,-0.876702,0.375862,-0.030243,1.146047,-0.374874,0.920806,0.107634,-1.470310,-0.384429,-0.271895,-34.367508,37.850361,3.234056,,,,,,,
1500293027.297845,-1.846198,-1.179365,-0.873111,0.358148,0.127406,0.691519,-0.367135,0.924364,0.103746,-1.448584,-0.562578,-0.158922,-33.777573,38.385300,3.143067,,,,,,,
1500293027.308422,-1.836768,-1.183850,-0.866395,0.347887,0.367223,0.229981,-0.364094,0.926066,0.099189,-1.316967,-0.734827,-0.102698,-33.126793,38.975914,2.779991,,,,,,,
1500293027.318998,-1.820882,-1.183826,-0.855553,0.385723,0.614020,-0.209552,-0.365644,0.926057,0.093398,-1.315417,-0.734818,-0.096907,-33.126793,38.975914,2.779991,,,,,,,
1500293027.329576,-1.798545,-1.179375,-0.840039,0.462165,0.791911,-0.645738,-0.371651,0.924368,0.086138,-1.081810,-0.801229,-0.077684,-33.089687,39.027424,2.483402,,,,,,,
1500293027.340153,-1.771262,-1.170753,-0.820279,0.555531,0.866834,-1.049328,-0.381659,0.921044,0.077551,-0.855905,-0.748955,-0.045218,-33.561493,38.669281,1.596121,,,,,,,
1500293027.350729,-1.740626,-1.158522,-0.796346,0.696968,0.792457,-1.376493,-0.394930,0.916212,0.067723,-0.842635,-0.744123,-0.035390,-33.561493,38.669281,1.596121,,,,,,,
1500293027.361307,-1.709924,-1.143490,-0.770131,0.810870,0.577159,-1.609990,-0.410416,0.910085,0.057471,-0.827148,-0.737997,-0.025138,-34.036316,38.270939,1.048347,,,,,,,
1500293027.371884,-1.681073,-1.126628,-0.742531,0.917472,0.283684,-1.747135,-0.427097,0.902968,0.047291,-0.627972,-0.643325,0.030102,-35.277309,37.144913,-0.034707,,,,,,,
1500293027.382460,-1.656186,-1.108669,-0.714812,0.998186,-0.103380,-1.816115,-0.444228,0.895106,0.038025,-0.610841,-0.635463,0.039368,-35.277309,37.144913,-0.034707,,,,,,,
1500293027.393038,-1.636147,-1.090210,-0.687253,1.061583,-0.539239,-1.830215,-0.461313,0.886724,0.030190,-0.491400,-0.548421,0.047492,-35.964882,36.476574,-0.470695,,,,,,,
1500293027.403615,-1.621373,-1.071639,-0.660435,1.091840,-0.937845,-1.820877,-0.478074,0.877986,0.024200,-0.483718,-0.410777,0.060288,-37.352348,35.045277,-0.930104,,,,,,,
1500293027.414191,-1.611845,-1.053120,-0.635044,1.087923,-1.275002,-1.792897,-0.494445,0.868971,0.020308,-0.467347,-0.401763,0.064180,-37.352348,35.045277,-0.930104,,,,,,,
1500293027.424769,-1.605891,-1.035028,-0.610387,1.117194,-1.502491,-1.746143,-0.510188,0.859876,0.017912,-0.537908,-0.320371,0.010271,-38.028690,34.310455,-0.919872,,,,,,,
1500293027.435346,-1.601455,-1.017161,-0.585715,1.167358,-1.587247,-1.728190,-0.525536,0.850619,0.016117,-0.607505,-0.302447,0.001934,-39.299648,32.855576,-0.532391,,,,,,,
1500293027.445922,-1.597155,-0.999027,-0.560885,1.206711,-1.567664,-1.761188,-0.540933,0.840945,0.014261,-0.592108,-0.292773,0.003790,-39.299648,32.855576,-0.532391,,,,,,,
1500293027.456500,-1.592754,-0.979883,-0.536847,1.197793,-1.445894,-1.868357,-0.556986,0.830432,0.012232,-0.576056,-0.282260,0.005819,-39.901962,32.124653,-0.273448,,,,,,,
1500293027.467077,-1.588070,-0.959242,-0.514452,1.142399,-1.252493,-2.010669,-0.574055,0.818756,0.009917,-0.599162,-0.275940,0.034471,-41.125969,30.542625,0.193344,,,,,,,
1500293027.477654,-1.583163,-0.936740,-0.494294,1.055721,-1.027316,-2.189527,-0.592373,0.805631,0.007326,-0.580845,-0.262815,0.037061,-41.125969,30.542625,0.193344,,,,,,,
,,,,,,,,,,,,,,,,46.907968,-94.376819,435.739075,0.640000,34.804688,1500293026.999921,
1500293027.488231,-1.578495,-0.912355,-0.476795,0.945246,-0.832388,-2.358696,-0.611866,0.790947,0.004711,-0.551021,-0.227013,0.068135,-41.776356,29.645250,0.360469,,,,,,,
1500293027.498808,-1.574270,-0.886264,-0.461591,0.862636,-0.695626,-2.509780,-0.632307,0.774715,0.002196,-0.480394,-0.173061,0.059541,-43.168076,27.575960,0.564162,,,,,,,
1500293027.509384,-1.570817,-0.858839,-0.448302,0.789966,-0.622020,-2.623201,-0.653317,0.757084,0.000013,-0.459384,-0.155430,0.061724,-43.168076,27.575960,0.564162,,,,,,,
1500293027.519962,-1.568288,-0.830375,-0.436313,0.743858,-0.605474,-2.707517,-0.674597,0.738184,-0.001692,-0.397974,-0.062800,0.035643,-43.888390,26.412912,0.634163,,,,,,,
1500293027.530540,-1.566851,-0.801261,-0.425265,0.724343,-0.633924,-2.761455,-0.695796,0.718234,-0.002745,-0.376775,-0.042850,0.036696,-45.308372,23.889956,0.809992,,,,,,,
1500293027.541116,-1.566324,-0.771796,-0.414621,0.722176,-0.679518,-2.792232,-0.716652,0.697423,-0.003205,-0.355919,-0.022039,0.037156,-45.308372,23.889956,0.809992,,,,,,,
1500293027.551693,-1.567089,-0.742090,-0.404463,0.705630,-0.746956,-2.809624,-0.737053,0.675829,-0.002732,-0.292107,0.036054,0.018418,-45.982307,22.560501,0.941125,,,,,,,
1500293027.562271,-1.569089,-0.712339,-0.394620,0.701805,-0.823033,-2.808711,-0.756834,0.653606,-0.001292,-0.251589,0.092000,0.002574,-47.221798,19.812235,1.346108,,,,,,,
1500293027.572847,-1.572106,-0.682747,-0.385208,0.675596,-0.864160,-2.797841,-0.775842,0.630927,0.001016,-0.232581,0.114679,0.000266,-47.221798,19.812235,1.346108,,,,,,,
1500293027.583424,-1.575712,-0.653257,-0.376284,0.644819,-0.857004,-2.784320,-0.794099,0.607776,0.003903,-0.206984,0.157941,0.002414,-47.775372,18.414829,1.625625,,,,,,,
1500293027.594002,-1.579457,-0.623972,-0.367984,0.598919,-0.806327,-2.774274,-0.811534,0.584264,0.007029,-0.181386,0.197414,0.008306,-48.743141,15.595037,2.266220,,,,,,,
1500293027.604578,-1.583140,-0.594801,-0.360514,0.530658,-0.730312,-2.759207,-0.828197,0.560344,0.010223,-0.164723,0.221334,0.005112,-48.743141,15.595037,2.266220,,,,,,,
1500293027.615155,-1.586479,-0.565799,-0.354161,0.443715,-0.613197,-2.746398,-0.844057,0.536090,0.013238,-0.135542,0.258465,0.015616,-49.159241,14.174948,2.583524,,,,,,,
1500293027.625733,-1.589272,-0.536965,-0.348931,0.352064,-0.490052,-2.732337,-0.859118,0.511531,0.015875,-0.120481,0.283025,0.012980,-49.861580,11.324574,3.132300,,,,,,,
1500293027.636309,-1.591226,-0.508321,-0.344676,0.276814,-0.351354,-2.704767,-0.873381,0.486711,0.017845,-0.106218,0.307845,0.011009,-49.861580,11.324574,3.132300,,,,,,,
1500293027.646886,-1.592316,-0.480071,-0.341481,0.191989,-0.213968,-2.664957,-0.886757,0.461842,0.019086,-0.055885,0.337276,0.012332,-50.152176,9.892852,3.335485,,,,,,,
1500293027.657464,-1.592546,-0.452332,-0.339100,0.128205,-0.093604,-2.615449,-0.899218,0.437064,0.019561,0.008455,0.368402,0.009156,-50.613491,7.058470,3.561881,,,,,,,
1500293027.668040,-1.592256,-0.425268,-0.337489,0.069923,-0.014497,-2.545315,-0.910718,0.412565,0.019546,0.019956,0.392900,0.009171,-50.613491,7.058470,3.561881,,,,,,,
1500293027.678617,-1.591584,-0.399091,-0.336418,0.037197,0.035382,-2.452079,-0.921216,0.388581,0.019153,0.083203,0.428787,0.007901,-50.785362,5.670427,3.595520,,,,,,,
1500293027.689195,-1.590812,-0.374103,-0.335817,-0.007771,0.053606,-2.329593,-0.930649,0.365438,0.018630,0.148987,0.441722,0.001420,-51.014065,3.009584,3.569632,,,,,,,
1500293027.699771,-1.590277,-0.350519,-0.335595,-0.030503,0.035556,-2.204833,-0.939016,0.343385,0.018295,0.157354,0.463774,0.001755,-51.014065,3.009584,3.569632,,,,,,,
1500293027.710348,-1.590187,-0.328217,-0.335637,-0.045202,-0.003146,-2.067929,-0.946441,0.322356,0.018354,0.164779,0.484804,0.001696,-51.073982,1.771574,3.541838,,,,,,,
1500293027.720926,-1.590630,-0.307587,-0.335830,-0.064822,-0.048029,-1.915138,-0.952880,0.302759,0.018901,0.210921,0.469640,-0.002803,-51.102768,-0.502891,3.533948,,,,,,,
1500293027.731502,-1.591253,-0.288315,-0.336368,-0.090982,-0.035889,-1.790249,-0.958524,0.284337,0.019611,0.216565,0.488063,-0.003513,-51.102768,-0.502891,3.533948,,,,,,,
1500293027.742079,-1.591570,-0.270168,-0.337390,-0.141471,0.006721,-1.692130,-0.963518,0.266893,0.020019,0.263170,0.441267,0.006516,-51.080711,-1.523283,3.560239,,,,,,,
1500293027.752657,-1.591638,-0.252952,-0.339169,-0.217829,0.047004,-1.600112,-0.967968,0.250263,0.020177,0.291454,0.411114,0.022593,-50.991314,-3.386147,3.557330,,,,,,,
1500293027.763233,-1.591466,-0.236603,-0.341785,-0.290450,0.083833,-1.526467,-0.971932,0.234401,0.020093,0.295419,0.426976,0.022678,-50.991314,-3.386147,3.557330,,,,,,,
1500293027.773811,-1.591151,-0.220929,-0.345389,-0.384262,0.112282,-1.457730,-0.975492,0.219136,0.019859,0.253889,0.519847,0.054726,-50.929813,-4.245148,3.516683,,,,,,,
1500293027.784388,-1.590728,-0.206175,-0.350088,-0.490223,0.142860,-1.357156,-0.978627,0.204718,0.019508,0.274510,0.580912,0.076912,-50.780205,-5.855873,3.363629,,,,,,,
1500293027.794964,-1.589596,-0.192958,-0.355751,-0.564809,0.245275,-1.195136,-0.981268,0.191762,0.018450,0.277151,0.593867,0.077971,-50.780205,-5.855873,3.363629,,,,,,,
1500293027.805542,-1.586896,-0.181816,-0.362204,-0.632615,0.408848,-0.988819,-0.983390,0.180816,0.015833,0.279273,0.604814,0.080587,-50.699020,-6.582301,3.243045,,,,,,,
1500293027.816119,-1.582473,-0.172728,-0.369252,-0.680066,0.577468,-0.808199,-0.985052,0.171871,0.011503,0.394186,0.536015,0.083255,-50.564430,-7.738725,2.754069,,,,,,,
1500293027.826695,-1.576328,-0.165609,-0.376997,-0.740550,0.747254,-0.621442,-0.986303,0.164853,0.005456,0.395437,0.543033,0.089301,-50.564430,-7.738725,2.754069,,,,,,,
1500293027.837273,-1.568668,-0.160560,-0.385260,-0.780062,0.884310,-0.423830,-0.987136,0.159871,-0.002101,0.521559,0.430400,0.098887,-50.517258,-8.164019,2.364322,,,,,,,
1500293027.847850,-1.559864,-0.157635,-0.393636,-0.777200,0.981536,-0.233766,-0.987542,0.156983,-0.010796,0.580789,0.345092,0.116235,-50.465370,-8.702234,1.323663,,,,,,,
1500293027.858426,-1.550633,-0.156843,-0.401868,-0.759408,0.985724,-0.039207,-0.987525,0.156201,-0.019915,0.580771,0.345875,0.125353,-50.465370,-8.702234,1.323663,,,,,,,
1500293027.869004,-1.541947,-0.157858,-0.409640,-0.721523,0.909365,0.122078,-0.987155,0.157203,-0.028487,0.546192,0.339943,0.142317,-50.459053,-8.808931,0.721996,,,,,,,
1500293027.890157,-1.529974,-0.165549,-0.423586,-0.618530,0.507543,0.464160,-0.985506,0.164794,-0.040253,0.544543,0.332353,0.154084,-50.477688,-8.722407,-0.396416,,,,,,,
1500293027.879581,-1.534876,-0.160809,-0.416955,-0.680597,0.732576,0.297512,-0.986461,0.160117,-0.035449,0.545498,0.337030,0.149280,-50.477688,-8.722407,-0.396416,,,,,,,
1500293027.900735,-1.527561,-0.171795,-0.429373,-0.545527,0.258681,0.595212,-0.984359,0.170951,-0.042586,0.474547,0.341896,0.152800,-50.504429,-8.536145,-0.819237,,,,,,,
1500293027.911312,-1.527349,-0.179089,-0.434278,-0.469568,0.053641,0.688509,-0.983078,0.178133,-0.042739,0.378982,0.375547,0.161941,-50.595207,-7.922294,-1.263760,,,,,,,
1500293027.921888,-1.528722,-0.187370,-0.438441,-0.404180,-0.089954,0.797978,-0.981628,0.186275,-0.041325,0.377533,0.367405,0.160527,-50.595207,-7.922294,-1.263760,,,,,,,
1500293027.932466,-1.531022,-0.196967,-0.441842,-0.329312,-0.168507,0.923613,-0.979889,0.195695,-0.038995,0.332199,0.393340,0.161447,-50.653141,-7.535456,-1.308066,,,,,,,
1500293027.943043,-1.533587,-0.207737,-0.444230,-0.235314,-0.203522,1.039618,-0.977823,0.206246,-0.036401,0.338678,0.372779,0.131921,-50.790001,-6.570147,-1.201396,,,,,,,
1500293027.953619,-1.536237,-0.219836,-0.445295,-0.109723,-0.239966,1.175164,-0.975350,0.218070,-0.033721,0.336206,0.360956,0.129241,-50.790001,-6.570147,-1.201396,,,,,,,
1500293027.964197,-1.539038,-0.233348,-0.444831,0.035832,-0.284921,1.314325,-0.972407,0.231236,-0.030892,0.359812,0.319865,0.132622,-50.863781,-5.991430,-1.101399,,,,,,,
1500293027.974775,-1.541611,-0.247987,-0.442925,0.163169,-0.285994,1.412082,-0.968996,0.245453,-0.028288,0.356401,0.305648,0.130018,-51.012230,-4.618131,-0.812264,,,,,,,
1500293027.985351,-1.543781,-0.263778,-0.439713,0.280876,-0.279995,1.529457,-0.965060,0.260730,-0.026078,0.352465,0.290372,0.127808,-51.012230,-4.618131,-0.812264,,,,,,,
1500293027.995928,-1.545518,-0.280656,-0.435746,0.326937,-0.254441,1.631078,-0.960567,0.276986,-0.024287,0.375270,0.218574,0.167949,-51.078941,-3.841099,-0.649771,,,,,,,
1500293028.017081,-1.547482,-0.318121,-0.428589,0.209044,-0.145454,1.870259,-0.949567,0.312782,-0.022142,0.390851,0.136666,0.248949,-51.182793,-2.106273,-0.346375,,,,,,,
1500293028.006505,-1.546734,-0.298743,-0.431715,0.311593,-0.208435,1.748753,-0.955431,0.294319,-0.022994,0.396715,0.155128,0.249801,-51.182793,-2.106273,-0.346375,,,,,,,
1500293028.027659,-1.548322,-0.339039,-0.427295,0.018913,-0.110347,2.013765,-0.942837,0.332581,-0.021194,0.397930,0.097885,0.315063,-51.213943,-1.144612,-0.237488,,,,,,,
1500293028.038237,-1.549436,-0.361554,-0.428501,-0.212412,-0.054674,2.158622,-0.935135,0.353728,-0.019978,0.360413,0.080354,0.328816,-51.217373,1.001404,-0.111400,,,,,,,
1500293028.048813,-1.551246,-0.385335,-0.432499,-0.459884,-0.022776,2.265464,-0.926496,0.375869,-0.018116,0.351773,0.058213,0.326954,-51.217373,1.001404,-0.111400,,,,,,,
1500293028.059390,-1.553962,-0.410186,-0.439329,-0.694396,-0.000530,2.369805,-0.916917,0.398780,-0.015437,0.342195,0.035302,0.324275,-51.180550,2.186197,-0.080155,,,,,,,
1500293028.069968,-1.557743,-0.435922,-0.448897,-0.914327,0.020848,2.436195,-0.906404,0.422246,-0.011833,0.270845,0.027171,0.268989,-51.010006,4.713140,-0.024519,,,,,,,
1500293028.080544,-1.562334,-0.462267,-0.460865,-1.089235,0.074866,2.492885,-0.895012,0.445978,-0.007574,0.259453,0.003439,0.264730,-51.010006,4.713140,-0.024519,,,,,,,
